File: doc/example/reference_pre/peptso-xrd-47-rawDistances.dat
14	59.7045
46	11.4277
78	46.9519
108	21.7872
139	64.9228
170	34.8063
201	58.7606
236	55.7184
267	34.5446
298	55.4149
329	27.178
364	65.5152
394	31.9928
425	49.8416
456	30.3849
487	29.3536
31	32.731
63	25.4161
94	39.3447
124	36.4764
155	49.3958
187	39.1607
222	60.2405
252	28.2698
283	56.4256
315	34.4144
348	44.9104
380	44.4069
410	39.6354
442	48.8444
473	23.6773
17	53.7031
49	13.8308
80	49.6783
110	19.3869
141	66.0887
172	31.3976
203	57.09
238	52.468
269	38.2533
300	51.8708
331	29.6896
366	65.3119
396	31.7623
427	49.8639
458	26.341
489	32.3529
33	31.1457
65	28.3529
96	38.5064
126	41.0445
157	45.2699
189	41.1004
224	64.6802
255	21.6459
285	60.4823
317	30.0252
350	48.9434
382	42.9661
413	39.3487
444	45.6686
475	21.5862
19	51.0471
51	9.2203
82	50.8834
112	23.997
143	62.5488
174	29.962
205	57.6214
240	50.4797
271	40.5906
302	48.6721
334	31.2523
368	59.9465
398	22.5401
429	50.6569
460	23.4101
491	31.1759
35	26.5897
67	32.263
98	36.0676
129	45.6303
159	44.0022
191	44.5575
226	68.6648
257	22.2037
287	63.4995
319	27.8493
352	49.2346
384	36.9018
415	36.4217
446	43.8929
477	22.6671
21	46.5325
53	13.2535
84	53.7356
114	25.7502
145	61.0038
176	28.8135
210	65.087
242	49.6909
273	45.7502
304	47.9239
336	28.5832
370	58.3575
400	27.2177
431	55.7549
462	22.0429
493	37.171
38	22.1213
69	36.7387
100	34.6374
131	48.9546
161	39.9699
193	47.1828
228	71.5142
259	26.4548
290	66.8237
321	25.7848
355	52.4063
386	38.2021
417	41.5866
448	43.0068
479	23.3894
23	44.8823
55	16.0456
86	52.9058
116	27.9742
147	60.201
178	28.0852
213	68.3569
244	46.7671
275	49.6552
306	45.5239
339	29.8697
372	57.2188
402	30.8692
433	57.8572
464	23.013
495	41.1725
40	18.0259
72	42.476
102	29.4295
133	52.245
163	39.3188
195	48.8445
230	69.6058
261	30.5767
292	65.7057
323	26.069
357	57.4714
388	36.3152
419	42.9214
450	40.1838
481	21.5525
25	41.828
57	19.6296
88	48.0417
118	30.827
149	57.0908
180	29.7893
215	66.1405
246	43.228
277	52.2313
308	44.5522
341	32.2545
374	55.4205
404	33.4923
436	59.6679
466	20.791
497	46.1648
42	17.9651
74	43.9104
104	29.4952
135	55.9422
165	36.9479
197	52.7643
232	66.1419
263	32.5269
294	63.4023
325	25.2511
359	57.5528
390	34.7954
421	47.2958
452	38.058
483	25.8422
27	34.0197
59	18.5864
90	43.8126
120	29.7297
151	50.7688
182	26.8998
218	58.1731
248	39.2457
279	53.8086
311	36.9791
343	31.3879
376	48.4205
406	31.5654
438	56.7637
469	25.5332
499	45.4503
44	9.72532
76	44.8068
106	20.6526
137	54.7274
167	31.9111
199	52.1661
234	62.5785
265	35.1752
296	57.692
327	19.6382
362	58.6339
392	30.7978
423	42.694
454	31.9398
485	25.1836
29	30.6151
61	20.9642
92	38.3742
122	31.8814
153	45.7778
185	28.6154
220	58.4859
250	36.2291
281	56.3443
313	32.8937
346	36.1502
378	46.2612
408	29.7961
440	50.1152
471	24.5563
14	54.4925
46	6.89623
78	42.6344
108	15.3944
139	60.1045
170	30.0848
201	53.2954
236	55.5669
267	33.4602
298	53.4932
329	25.8137
364	63.5589
394	32.1605
425	47.3394
456	29.2441
487	29.8899
31	29.0181
63	23.4333
94	35.2921
124	33.7254
155	46.4669
187	34.232
222	61.0542
252	30.1632
283	57.3779
315	33.6955
348	42.8679
380	44.7038
410	38.5471
442	47.7198
473	28.2742
17	50.7703
49	13.128
80	49.0574
110	17.0752
141	64.3203
172	26.804
203	54.9968
238	55.3108
269	40.0079
300	53.1578
331	26.5939
366	65.274
396	31.7095
427	49.3583
458	27.4768
489	33.5525
33	27.8748
65	29.3282
96	36.2873
126	40.6567
157	42.7413
189	37.5165
224	70.1105
255	27.9985
285	64.7475
317	29.9686
350	46.1347
382	43.3802
413	36.9892
444	47.1271
475	25.7633
19	50.4897
51	11.2088
82	46.6034
112	20.9012
143	61.2741
174	33.0317
205	54.6121
240	45.4025
271	36.6011
302	46.051
334	36.027
368	59.5915
398	28.1211
429	49.4171
460	21.5038
491	31.1574
35	24.7373
67	28.1354
98	30.8202
129	41.393
159	42.7722
191	40.8856
226	63.3655
257	15.9278
287	58.7932
319	27.4203
352	49.4227
384	38.091
415	37.9244
446	40.5919
477	27.1916
21	46.2644
53	14.1356
84	49.797
114	22.3859
145	59.8005
176	33.9701
210	59.3705
242	40.8861
273	39.0842
304	42.9412
336	34.0391
370	55.7227
400	32.7394
431	52.4114
462	16.5005
493	34.514
38	21.5713
69	28.4992
100	31.28
131	42.6774
161	37.8694
193	43.7828
228	59.6911
259	15.8726
290	56.9168
321	22.691
355	49.1648
386	34.8045
417	38.639
448	34.6053
479	22.6296
23	38.9663
55	8.09413
86	43.0554
116	19.7102
147	51.8829
178	27.7554
213	55.5989
244	32.9796
275	36.4447
306	33.9961
339	28.8262
372	48.1756
402	33.1131
433	46.7792
464	13.048
495	31.6316
40	17.4097
72	32.801
102	26.1124
133	44.9438
163	37.4146
195	44.3593
230	57.1326
261	18.7501
292	54.7791
323	23.4753
357	52.5617
388	31.2086
419	37.31
450	30.9586
481	18.3945
25	37.2529
57	13.2675
88	40.9699
118	24.133
149	51.2226
180	30.075
215	55.8689
246	31.9391
277	41.5827
308	35.9385
341	30.0679
374	48.1125
404	34.1056
436	50.7258
466	11.6776
497	38.279
42	16.5168
74	33.3737
104	25.3899
135	47.3185
165	34.1124
197	46.3296
232	54.1739
263	20.6734
294	52.3589
325	22.9299
359	51.4264
390	31.253
421	40.5447
452	27.7289
483	22.2229
27	31.2909
59	11.1874
90	37.5893
120	22.9517
151	46.8721
182	27.2036
218	47.5993
248	27.6965
279	43.2669
311	30.6094
343	31.6995
376	42.8826
406	34.9437
438	48.2832
469	18.4456
499	38.3743
44	15.71
76	41.8609
106	26.8583
137	54.3194
167	36.7422
199	54.4002
234	53.701
265	28.3345
296	51.1148
327	21.6764
362	55.1468
392	26.8355
423	39.6337
454	26.4876
485	19.4895
29	35.0555
61	20.3355
92	41.6129
122	33.7064
153	48.7606
185	35.7856
220	52.1996
250	26.8881
281	49.6249
313	30.4225
346	40.3527
378	43.4867
408	33.7811
440	47.895
471	13.5437
14	57.253
46	12.0452
78	43.0763
108	23.3379
139	61.5623
170	34.8807
201	56.5234
236	48.6068
267	27.7954
298	48.9346
329	25.8951
364	60.1907
394	28.2495
425	44.5562
456	23.8808
487	23.2559
31	30.4309
63	21.0573
94	36.8321
124	32.3583
155	45.8826
187	38.2053
222	53.5451
252	21.4075
283	49.2517
315	29.2806
348	41.315
380	38.5422
410	36.9682
442	42.9231
473	18.0204
17	54.5074
49	9.55192
80	52.249
110	23.9318
141	66.7237
172	30.6049
203	58.7967
238	54.1657
269	39.4469
300	51.8663
331	25.3299
366	62.5634
396	25.9693
427	48.8753
458	25.8626
489	29.0247
33	29.7332
65	28.5859
96	39.7792
126	41.6212
157	43.7723
189	41.7109
224	66.6442
255	24.3715
285	61.6243
317	27.9346
350	45.9099
382	39.6102
413	35.3486
444	45.8308
475	17.6249
19	51.0059
51	9.68241
82	50.9022
112	23.7197
143	62.7368
174	29.6672
205	57.7112
240	50.9839
271	41.0804
302	49.1428
334	31.1454
368	60.4493
398	23.0437
429	51.065
460	23.9638
491	31.8395
35	25.516
67	32.5317
98	35.6783
129	45.6768
159	42.7956
191	43.5321
226	71.0009
257	23.9717
287	65.0683
319	27.2321
352	48.2781
384	36.9136
415	35.6196
446	44.5126
477	23.6329
21	46.8352
53	15.2959
84	52.3777
114	23.4926
145	61.6112
176	29.974
210	63.2882
242	47.7857
273	45.0121
304	48.2015
336	31.8342
370	59.8482
400	32.0694
431	56.36
462	22.1556
493	39.0051
38	22.8787
69	34.2934
100	32.8106
131	47.4867
161	40.8463
193	45.8736
228	67.307
259	22.758
290	64.2179
321	26.8586
355	53.8103
386	39.9019
417	43.1863
448	40.9873
479	26.25
23	44.1516
55	15.0688
86	50.0898
116	25.2964
147	59.4602
178	28.1477
213	64.8345
244	43.2661
275	46.9503
306	43.996
339	31.755
372	57.0394
402	34.7596
433	56.4548
464	21.9267
495	40.8052
40	19.7762
72	41.3725
102	29.9957
133	52.2192
163	41.2182
195	49.5574
230	66.7313
261	28.1879
292	64.1627
323	27.5592
357	58.5495
388	36.7951
419	43.6404
450	39.4586
481	21.9424
25	43.6147
57	18.5018
88	48.6518
118	31.8871
149	57.5046
180	34.9705
215	63.0768
246	37.3296
277	47.4019
308	40.7614
341	33.6531
374	52.1536
404	34.4796
436	57.1582
466	14.3022
497	41.2877
42	21.3441
74	42.6188
104	32.4996
135	55.8643
165	39.541
197	54.6567
232	60.9153
263	28.8925
294	60.331
325	25.9237
359	56.8165
390	33.7667
421	46.4639
452	35.5773
483	23.1871
27	39.6836
59	20.0631
90	47.696
120	32.8941
151	54.635
182	34.7047
218	56.4439
248	34.8832
279	50.4694
311	36.5064
343	36.7069
376	48.4615
406	36.4513
438	56.9541
469	17.0659
499	43.1073
44	16.2949
76	46.9324
106	27.8393
137	59.0423
167	39.2158
199	57.9749
234	59.5363
265	34.0638
296	57.2494
327	24.3482
362	60.4884
392	31.0381
423	45.0617
454	32.4135
485	24.5856
29	35.1388
61	21.2904
92	41.1775
122	33.5426
153	49.4544
185	34.7002
220	53.8788
250	29.1593
281	51.9931
313	32.4917
346	41.1581
378	46.0482
408	34.8879
440	49.2651
471	17.4684
14	59.0569
46	13.2834
78	48.3739
108	25.9711
139	64.2748
170	32.3038
201	59.5138
236	55.6249
267	33.9978
298	53.3566
329	20.1881
364	59.8499
394	23.6819
425	45.7261
456	27.6441
487	22.8484
31	33.7144
63	26.3281
94	42.5632
124	38.0783
155	48.8503
187	41.5739
222	60.9352
252	28.9047
283	55.755
315	32.1412
348	42.8387
380	40.8055
410	35.8436
442	48.4997
473	17.4559
17	54.8643
49	11.2261
80	50.8088
110	24.5828
141	66.0305
172	33.0441
203	58.3978
238	50.3478
269	36.4147
300	49.0127
331	27.8283
366	60.9466
396	26.0142
427	47.4486
458	23.5574
489	26.9181
33	26.3796
65	21.0732
96	33.2411
126	34.2071
157	39.4928
189	36.5556
224	57.1598
255	14.5359
285	52.5906
317	23.686
350	43.786
382	37.0307
413	34.9384
444	37.9799
475	19.0006
19	50.7169
51	10.9486
82	46.4197
112	21.6861
143	60.9059
174	34.0249
205	54.3462
240	43.8864
271	35.2428
302	44.8955
334	36.7226
368	58.5644
398	27.7636
429	48.5472
460	20.2461
491	29.8335
35	26.9754
67	30.7621
98	34.3522
129	44.1892
159	44.7775
191	43.9872
226	64.9593
257	18.5381
287	60.7393
319	28.6915
352	50.5706
384	38.1274
415	38.2945
446	42.5465
477	24.8355
21	49.6469
53	13.9482
84	55.4109
114	28.6059
145	62.8087
176	35.2447
210	65.461
242	46.0976
273	43.1574
304	45.5931
336	32.6704
370	56.6653
400	27.0122
431	55.0504
462	18.8043
493	34.1376
38	24.1417
69	35.4932
100	37.2096
131	48.6648
161	40.7488
193	49.4405
228	66.9371
259	24.1117
290	63.4627
321	24.5139
355	50.9004
386	35.1278
417	39.8464
448	40.9359
479	18.7686
23	46.8015
55	14.8596
86	54.0726
116	29.826
147	60.1158
178	32.4193
213	67.3683
244	43.098
275	46.0502
306	42.3991
339	31.1913
372	54.5367
402	29.7242
433	55.4518
464	18.3036
495	37.0057
40	16.3233
72	42.3417
102	29.7493
133	51.448
163	37.1216
195	48.3504
230	70.0691
261	31.4171
292	65.1965
323	23.1757
357	54.5136
388	33.2472
419	40.2595
450	39.1101
481	18.5524
25	41.7056
57	18.863
88	49.5459
118	33.1031
149	56.2862
180	30.4596
215	67.3822
246	44.3118
277	52.2263
308	42.8135
341	29.5357
374	52.6701
404	28.4834
436	59.177
466	20.008
497	43.3051
42	17.797
74	44.547
104	31.3976
135	55.0752
165	34.2325
197	53.2231
232	66.7355
263	33.0991
294	62.4301
325	20.5945
359	53.3765
390	29.5165
421	43.7181
452	36.9898
483	21.0947
27	36.2318
59	20.1914
90	47.4474
120	32.8462
151	50.7139
182	31.0717
218	59.2682
248	39.7499
279	53.2098
311	34.6454
343	30.183
376	45.6085
406	27.8614
438	56.9513
469	22.3092
499	42.1502
44	16.2307
76	47.1935
106	27.2059
137	56.804
167	33.7433
199	56.1249
234	62.0221
265	35.8693
296	57.1127
327	17.3765
362	55.6175
392	25.1354
423	41.2651
454	31.2637
485	20.3967
29	35.3152
61	24.8155
92	43.7147
122	36.9897
153	50.1689
185	33.9679
220	61.9346
250	38.3037
281	59.285
313	35.8612
346	39.5548
378	48.4743
408	31.4029
440	54.2976
471	23.6793
14	59.2896
46	12.0994
78	49.7229
108	23.1865
139	65.2793
170	30.9465
201	59.4124
236	60.5248
267	38.2652
298	57.5706
329	21.6964
364	63.7491
394	27.9573
425	49.2394
456	32.1242
487	28.5191
31	30.4778
63	26.5959
94	40.4823
124	37.6639
155	46.5304
187	36.7598
222	66.4135
252	35.2045
283	61.067
315	33.0227
348	40.9102
380	43.052
410	33.6257
442	50.344
473	25.7297
17	52.6736
49	8.42777
80	52.6053
110	23.2855
141	65.8756
172	26.8757
203	57.8222
238	57.2325
269	41.5978
300	53.543
331	21.7875
366	62.7183
396	25.4242
427	48.8931
458	27.37
489	30.2587
33	26.9359
65	28.5961
96	34.8306
126	39.5647
157	41.8376
189	36.0313
224	69.6908
255	27.8577
285	64.2591
317	29.6386
350	45.6166
382	43.4198
413	36.8745
444	46.3877
475	26.835
19	48.8268
51	13.1925
82	48.9974
112	20.0507
143	62.1823
174	26.6409
205	56.2934
240	53.3236
271	43.238
302	50.9802
334	30.1049
368	62.65
398	27.2338
429	52.4162
460	27.0026
491	35.7608
35	24.8932
67	32.9313
98	33.2937
129	45.5824
159	42.6703
191	41.3221
226	73.4061
257	25.0931
287	67.1367
319	28.9395
352	49.9135
384	40.833
415	38.4627
446	46.2783
477	29.9815
21	45.7259
53	15.2986
84	52.8198
114	24.0835
145	60.9356
176	26.6155
210	64.5452
242	50.959
273	47.1652
304	49.6835
336	28.8945
370	60.3493
400	30.3625
431	56.9064
462	24.3678
493	39.9961
38	19.4163
69	31.4191
100	29.2178
131	44.2066
161	37.4688
193	42.2415
228	66.4016
259	20.7434
290	62.0941
321	24.2299
355	51.079
386	37.9821
417	40.6437
448	38.3213
479	25.8771
23	41.9721
55	11.1193
86	47.4269
116	23.0388
147	56.1393
178	27.9416
213	61.1595
244	38.7825
275	42.2867
306	39.4039
339	29.8819
372	52.7885
402	32.9179
433	52.0967
464	17.2167
495	36.2046
40	20.0313
72	40.5979
102	30.7895
133	51.8636
163	41.3565
195	49.978
230	64.9341
261	26.9945
292	62.7797
323	26.8871
357	57.5114
388	35.1035
419	42.5067
450	38.2736
481	20.1067
25	43.6578
57	19.8021
88	49.5971
118	32.5133
149	58.324
180	32.9441
215	66.0675
246	41.6219
277	51.1392
308	43.6914
341	33.3827
374	54.6623
404	33.8299
436	59.6657
466	18.4866
497	44.5527
42	19.896
74	43.7189
104	31.5659
135	56.2837
165	38.3832
197	54.2539
232	63.8075
263	30.992
294	62.1291
325	25.296
359	57.1125
390	33.8911
421	46.8586
452	37.0055
483	23.9776
27	39.3245
59	20.6398
90	46.8593
120	32.4671
151	55.5303
182	33.0959
218	57.5445
248	36.5275
279	52.5904
311	39.0174
343	37.6721
376	51.0725
406	38.0962
438	58.3125
469	21.108
499	46.2754
44	10.3774
76	45.0266
106	21.17
137	56.3738
167	35.6114
199	53.4135
234	61.7782
265	34.7647
296	58.3693
327	24.2403
362	62.0072
392	34.6356
423	45.4803
454	33.32
485	28.2102
29	35.3165
61	24.4903
92	42.1257
122	35.3981
153	50.4578
185	33.0855
220	60.1835
250	36.8004
281	58.4809
313	36.4779
346	41.0787
378	49.9386
408	34.2741
440	53.4461
471	24.639
14	56.6435
46	8.52454
78	45.393
108	17.8059
139	62.4219
170	30.8736
201	55.7444
236	57.6628
267	35.5646
298	55.583
329	25.324
364	64.6717
394	31.7922
425	48.8737
456	30.8784
487	30.3056
31	30.2012
63	24.3588
94	36.8453
124	34.9371
155	47.4519
187	35.7367
222	61.6075
252	30.3462
283	57.8078
315	34.1099
348	43.4856
380	44.8589
410	38.6594
442	48.5398
473	27.1965
17	54.1319
49	13.9196
80	50.1255
110	19.8598
141	66.5099
172	31.714
203	57.542
238	52.7553
269	38.5889
300	52.1882
331	29.7951
366	65.5527
396	31.7669
427	50.1999
458	26.6403
489	32.508
33	31.8614
65	30.6134
96	40.2407
126	43.182
157	46.2886
189	42.2913
224	68.1805
255	25.2493
285	63.6758
317	31.3146
350	49.3242
382	43.8688
413	39.3347
444	48.1318
475	22.0999
19	52.7629
51	12.5205
82	51.2273
112	23.6853
143	64.6942
174	31.8606
205	58.7831
240	51.3714
271	42.1021
302	50.8365
334	34.1893
368	63.0669
398	26.8313
429	53.285
460	25.8293
491	34.451
35	26.865
67	32.785
98	34.5402
129	45.942
159	44.9172
191	43.6226
226	69.8662
257	22.322
287	64.9025
319	29.8631
352	51.5133
384	40.5782
415	39.5199
446	45.5169
477	27.8484
21	43.1118
53	12.3439
84	47.772
114	19.392
145	57.4619
176	29.1733
210	58.337
242	42.8308
273	39.9452
304	43.3961
336	30.504
370	55.5706
400	31.8375
431	51.688
462	17.759
493	35.2317
38	21.3536
69	30.6032
100	31.2867
131	44.3009
161	38.5798
193	44.1033
228	63.0171
259	18.5813
290	59.9101
321	23.9461
355	50.7682
386	36.6798
417	40.1868
448	37.0436
479	23.899
23	41.4676
55	10.2013
86	46.5262
116	22.4218
147	55.1927
178	28.2484
213	59.7889
244	37.0866
275	40.6208
306	37.9087
339	29.7651
372	51.5432
402	32.9089
433	50.6979
464	15.7555
495	34.8138
40	18.2383
72	36.4114
102	27.4497
133	48.0614
163	39.1574
195	46.4922
230	61.0944
261	22.6277
292	58.8086
323	25.3622
357	55.434
388	33.8835
419	40.2779
450	34.699
481	20.0028
25	41.5748
57	17.1743
88	45.9206
118	28.9027
149	55.7718
180	32.8826
215	60.8359
246	35.8728
277	46.0523
308	40.0673
341	33.0123
374	51.8815
404	35.2859
436	55.5584
466	14.2271
497	41.5023
42	19.3226
74	38.0775
104	29.4243
135	51.8418
165	37.3206
197	50.9422
232	56.8944
263	24.429
294	56.1418
325	24.562
359	54.2568
390	32.4785
421	43.6202
452	31.5404
483	22.3057
27	38.7134
59	18.5197
90	45.4546
120	30.823
151	53.9002
182	33.9379
218	53.6989
248	32.0338
279	48.2113
311	35.8794
343	37.243
376	48.0902
406	38.2324
438	55.0382
469	16.4857
499	42.518
44	14.6187
76	44.942
106	25.7757
137	57.7796
167	39.3595
199	56.1941
234	58.0109
265	32.3384
296	56.2519
327	26.027
362	61.5246
392	33.463
423	45.3366
454	31.8949
485	26.3743
29	36.3202
61	23.3831
92	45.2367
122	37.746
153	50.1516
185	37.1871
220	58.6477
250	33.706
281	54.9646
313	32.6385
346	39.4621
378	44.4132
408	30.4853
440	52.2979
471	16.049
14	59.1713
46	13.5066
78	48.934
108	26.1079
139	64.5282
170	31.9079
201	59.7323
236	56.6334
267	34.8833
298	54.0303
329	19.6563
364	60.0017
394	23.5061
425	46.0218
456	28.3323
487	23.2692
31	33.1559
63	26.6598
94	43.048
124	38.4461
155	47.9393
187	41.1189
222	62.63
252	30.9159
283	56.9202
315	31.4545
348	41.4624
380	39.9892
410	33.7123
442	48.7845
473	17.6302
17	52.4109
49	9.8902
80	48.3191
110	23.8503
141	63.1661
172	31.595
203	55.8725
238	47.7971
269	33.5462
300	45.8374
331	26.4783
366	57.6742
396	23.8901
427	44.2363
458	20.3857
489	23.6745
33	30.7171
65	26.9883
96	39.8581
126	40.5564
157	44.0494
189	42.5616
224	62.2338
255	19.9403
285	57.7854
317	27.1212
350	46.5674
382	38.5357
413	36.1484
444	43.6353
475	15.1869
19	51.2677
51	8.53644
82	48.7207
112	24.5437
143	60.9285
174	33.6748
205	55.6736
240	44.6196
271	35.4527
302	44.4682
334	34.8748
368	56.8387
398	23.3428
429	47.6675
460	19.0141
491	27.1863
500	41.1071