File: doc/example/reference_pre_NO_2015/peptso-xrd-47-rawDistances.dat
14	57.9656
53	11.9603
90	45.2539
126	39.3601
163	39.7484
201	57.7944
242	40.958
279	45.7381
317	25.925
357	52.9098
394	25.4916
431	50.9839
469	12.8387
19	47.9975
57	12.6864
94	37.7093
131	43.231
167	35.0997
205	52.6678
246	33.93
283	51.0085
321	20.2028
362	53.9421
398	22.4614
436	51.4261
473	16.4256
23	42.8245
61	20.3748
98	32.3435
135	51.6877
172	30.0685
213	61.7334
250	29.0209
287	60.2364
325	23.8074
366	61.9603
402	33.2242
440	48.4466
477	25.3695
27	33.6345
65	25.3692
102	24.5145
139	60.0005
176	27.7609
218	53.5451
255	22.0712
292	60.224
329	24.7693
370	57.1452
406	35.8217
444	43.043
481	21.332
31	28.6685
69	31.451
106	19.9389
143	59.6441
180	27.5841
222	59.4202
259	20.8233
296	54.5658
334	32.1382
374	51.6953
410	37.0954
448	38.3064
485	25.5886
35	27.8283
74	41.8907
110	19.8581
147	60.4203
185	35.785
226	68.4498
263	29.159
300	52.1963
339	32.9531
378	49.3263
415	40.3272
452	35.9439
489	32.6144
40	19.1801
78	46.2871
114	23.6578
151	54.375
189	40.0296
230	65.5159
267	34.387
304	47.5602
343	36.9844
382	44.1401
419	42.9818
456	30.1188
493	38.5264
44	16.2325
82	47.1846
118	29.5965
155	47.917
193	47.365
234	53.5592
271	34.8292
308	37.5204
348	42.8474
386	35.407
423	41.8113
460	19.4253
497	38.2722
49	13.5991
86	52.5141
122	36.7006
159	46.4841
197	54.7133
238	51.1366
275	44.8777
313	34.6281
352	51.932
390	33.5553
427	49.5602
464	18.5567
14	57.4533
53	12.3141
90	44.2552
126	38.5627
163	39.7285
201	57.0391
242	39.8767
279	44.8823
317	25.8669
357	53.1707
394	26.5573
431	50.6186
469	12.8718
19	48.1215
57	14.2188
94	35.6239
131	42.9511
167	36.9703
205	51.3187
246	31.7209
283	49.6364
321	23.2508
362	56.9253
398	28.4203
436	51.4047
473	20.092
23	43.6329
61	20.3734
98	32.6965
135	51.5869
172	32.0384
213	60.363
250	26.5578
287	58.4526
325	25.1571
366	61.8079
402	35.0065
440	47.492
477	25.1248
27	39.5601
65	29.6712
102	33.5155
139	65.4718
176	34.4992
218	57.4947
255	24.8738
292	62.6514
329	22.0059
370	56.0436
406	33.7539
444	46.673
481	15.0915
31	32.3879
69	35.7865
106	28.2077
143	62.296
180	32.5244
222	63.8802
259	25.6686
296	56.6655
334	30.1067
374	49.6429
410	32.7683
448	41.1031
485	20.6269
35	27.4306
74	41.6266
110	20.1316
147	59.9211
185	35.6728
226	68.153
263	28.7124
300	51.5849
339	32.3726
378	48.4694
415	39.4813
452	35.3539
489	31.6623
40	18.2929
78	46.6023
114	23.7336
151	54.0299
189	39.4285
230	66.7976
267	35.3444
304	48.1349
343	36.148
382	44.1242
419	42.748
456	30.6849
493	38.844
44	11.8035
82	49.2708
118	29.8156
155	49.4528
193	45.793
234	61.5119
271	42.3779
308	44.1111
348	45.1396
386	40.7984
423	46.2124
460	26.7169
497	45.9732
49	13.5149
86	47.8727
122	32.2542
159	42.6025
197	48.7488
238	52.8898
275	46.314
313	34.4797
352	50.1089
390	34.8917
427	48.4189
464	22.0265
14	50.9841
53	10.7923
90	36.8342
126	31.8652
163	34.6847
201	49.9712
242	36.8482
279	41.482
317	22.2769
357	50.2564
394	27.8334
431	46.3658
469	17.4704
19	47.4181
57	16.9935
94	34.9404
131	44.6179
167	34.5738
205	53.1629
246	39.2588
283	56.4048
321	25.6311
362	60.8077
398	30.1487
436	55.7169
473	27.7563
23	41.6371
61	19.7791
98	30.8147
135	50.7384
172	29.0139
213	60.8839
250	29.095
287	59.8852
325	23.8341
366	62.0298
402	33.6729
440	47.7732
477	26.7616
27	37.6133
65	31.1795
102	29.9138
139	64.9862
176	28.5053
218	60.6797
255	29.0966
292	66.3724
329	22.6543
370	60.407
406	33.9704
444	48.9349
481	20.9765
31	32.2224
69	36.2346
106	22.5651
143	63.8672
180	29.5656
222	64.3044
259	25.7919
296	59.41
334	32.6412
374	55.555
410	39.0829
448	43.0358
485	28.3847
35	23.7255
74	39.0905
110	15.5277
147	57.028
185	30.7021
226	68.9427
263	28.6021
300	51.4204
339	29.3338
378	48.3762
415	38.5527
452	34.5241
489	32.6383
40	17.1468
78	45.928
114	22.619
151	53.2428
189	37.7784
230	67.6903
267	35.9917
304	48.6294
343	35.307
382	44.4831
419	42.6319
456	31.2462
493	39.6729
44	11.6949
82	43.6524
118	25.3863
155	46.5887
193	43.269
234	54.0588
271	35.5002
308	38.7988
348	42.8699
386	37.9625
423	42.2143
460	21.3446
497	41.1939
49	14.2417
86	46.9547
122	31.3202
159	43.0482
197	49.9447
238	46.2999
275	40.2675
313	30.9381
352	49.1135
390	32.659
427	45.4972
464	16.0883
14	60.8195
53	15.3699
90	47.3821
126	42.4135
163	42.4566
201	60.2292
242	44.64
279	50.0054
317	30.3057
357	57.4378
394	29.774
431	55.5708
469	16.9479
19	52.8954
57	17.9971
94	42.2596
131	48.6177
167	39.05
205	57.9702
246	38.1276
283	55.8776
321	25.2407
362	58.9882
398	24.3243
436	57.0008
473	18.5223
23	38.799
61	20.9211
98	30.0326
135	50.4189
172	22.8568
213	64.2225
250	36.1192
287	64.4152
325	20.6819
366	61.8634
402	28.9497
440	50.0582
477	29.0447
27	32.4973
65	26.7963
102	24.8639
139	59.9261
176	24.1245
218	56.8869
255	26.9867
292	62.4563
329	20.2554
370	56.9007
406	31.2072
444	44.5632
481	19.7978
31	32.4866
69	34.2285
106	27.7825
143	61.9077
180	33.3617
222	60.7833
259	22.9975
296	54.7933
334	32.9154
374	49.4704
410	34.767
448	39.7001
485	20.9666
35	27.1704
74	43.8933
110	23.6086
147	59.8609
185	36.1997
226	71.6307
263	31.3067
300	52.8672
339	29.8805
378	47.3325
415	37.231
452	36.49
489	30.113
40	17.0943
78	47.9009
114	25.9376
151	52.9088
189	40.0339
230	67.8651
267	35.9354
304	47.3404
343	33.6933
382	41.5292
419	40.4831
456	30.0167
493	36.4892
44	14.4828
82	50.4985
118	31.4707
155	48.1741
193	47.4849
234	59.7463
271	40.0839
308	40.8093
348	42.5836
386	36.1721
423	43.3947
460	23.1705
497	41.4021
49	14.18
86	46.4529
122	30.826
159	42.5935
197	49.5888
238	45.5231
275	39.4434
313	30.2133
352	48.5493
390	32.1346
427	44.7853
464	15.3477
14	54.2732
53	13.0849
90	39.7719
126	35.4036
163	37.5997
201	53.0586
242	39.8115
279	45.0003
317	26.0827
357	53.9589
394	30.203
431	50.3968
469	18.4915
19	51.0621
57	16.5358
94	41.2843
131	47.3117
167	36.5044
205	57.0759
246	39.161
283	56.3043
321	23.1992
362	57.2352
398	21.7937
436	56.1785
473	18.9287
23	41.0817
61	23.0941
98	32.6998
135	52.8134
172	24.4913
213	66.7617
250	37.8242
287	66.6181
325	21.5966
366	63.2383
402	28.6613
440	52.4294
477	28.7918
27	38.4887
65	27.7291
102	32.1589
139	63.9688
176	34.5432
218	54.9665
255	22.044
292	60.4473
329	22.8209
370	54.8238
406	34.5006
444	44.6592
481	15.0326
31	33.7234
69	36.9484
106	26.9416
143	64.4218
180	32.7045
222	64.3467
259	26.0485
296	58.6367
334	32.628
374	53.2868
410	36.8742
448	42.9304
485	24.7978
35	28.0608
74	42.1749
110	23.6441
147	59.4827
185	37.6049
226	67.1542
263	27.95
300	49.7899
339	31.914
378	45.6262
415	37.0763
452	34.1024
489	28.1735
40	19.2751
78	48.2672
114	26.3587
151	54.5357
189	41.7148
230	66.5953
267	35.2402
304	47.4233
343	36.063
382	42.6142
419	41.9555
456	30.0253
493	36.9269
44	14.1103
82	51.1077
118	31.759
155	47.5825
193	47.0264
234	61.3237
271	41.3024
308	41.2913
348	41.8298
386	35.8668
423	43.2554
460	24.0054
497	41.8877
49	12.2361
86	52.8399
122	36.9452
159	45.8469
197	54.4353
238	52.7916
275	46.1357
313	34.8655
352	51.4041
390	33.0222
427	49.7322
464	19.3671
14	61.0255
53	16.0787
90	47.894
126	43.4214
163	42.0506
201	60.4604
242	48.1076
279	53.233
317	31.7767
357	58.5814
394	30.8229
431	57.5946
469	20.9742
19	46.2834
57	16.2905
94	36.3797
131	44.6572
167	30.9846
205	54.3422
246	42.9108
283	59.1059
321	23.0775
362	58.3761
398	24.9416
436	56.2906
473	27.5278
23	45.6114
61	23.2722
98	37.0388
135	54.9596
172	31.0201
213	66.5601
250	33.0941
287	64.1424
325	22.4777
366	61.9481
402	29.3023
440	52.1785
477	21.9325
27	32.1444
65	20.6021
102	23.861
139	56.7408
176	30.7426
218	47.102
255	14.9229
292	54.0075
329	25.7193
370	52.3294
406	36.4195
444	37.7159
481	19.5426
31	26.7511
69	25.4834
106	22.4059
143	54.8141
180	29.776
222	51.4843
259	13.1962
296	46.7109
334	34.3067
374	45.1305
410	34.91
448	31.6213
485	20.5012
35	23.6512
74	36.4473
110	17.1258
147	55.1664
185	32.3728
226	63.2372
263	23.2769
300	46.1688
339	29.7024
378	43.8135
415	35.6212
452	29.9649
489	27.5205
40	16.2623
78	42.35
114	19.8759
151	50.7744
189	36.4899
230	62.6244
267	31.1259
304	44.3101
343	34.1897
382	41.4546
419	39.9367
456	26.9213
493	36.1203
44	13.3223
82	51.3207
118	31.6995
155	48.1863
193	46.7321
234	62.6496
271	42.688
308	42.8118
348	42.7559
386	37.5356
423	44.4697
460	25.6121
497	43.7547
49	10.1358
86	53.6101
122	37.6514
159	44.7776
197	54.2986
238	55.1909
275	47.8451
313	34.9984
352	50.2294
390	31.6637
427	49.7322
464	20.454
14	58.8696
53	13.6784
90	47.808
126	42.8519
163	38.3015
201	59.1858
242	51.0399
279	54.9395
317	29.7614
357	55.0456
394	26.5797
431	56.3841
469	23.5717
19	49.9618
57	18.4959
94	40.1755
131	47.9618
167	34.2967
205	57.7419
246	43.9943
283	60.7545
321	25.0913
362	60.127
398	24.2944
436	58.8622
473	26.0871
23	45.3922
61	23.1918
98	37.7292
135	54.7526
172	30.5253
213	67.0576
250	33.8293
287	64.3382
325	20.902
366	60.5004
402	26.9633
440	52.1845
477	20.112
27	32.4961
65	21.5287
102	24.1403
139	57.5086
176	30.2329
218	48.4758
255	16.341
292	55.2671
329	25.1773
370	53.1348
406	36.0399
444	38.8106
481	19.3509
31	27.5492
69	27.4167
106	20.6713
143	56.7231
180	28.9421
222	53.6319
259	15.5044
296	49.5716
334	34.6178
374	48.4241
410	37.08
448	34.107
485	23.7536
35	23.3909
74	34.0623
110	16.4117
147	53.7124
185	32.0828
226	59.8569
263	20.2425
300	43.4707
339	30.364
378	42.328
415	35.1506
452	27.6015
489	26.4915
40	19.0613
78	44.0123
114	24.7063
151	50.7788
189	40.8028
230	59.2158
267	28.2631
304	40.5143
343	34.1442
382	37.0497
419	37.286
456	23.3192
493	30.3875
44	11.0316
82	50.1295
118	30.1635
155	47.5496
193	44.6895
234	63.6206
271	43.6462
308	43.8354
348	42.7726
386	38.9907
423	44.8912
460	27.0066
497	45.5313
49	13.1231
86	48.3342
122	32.7954
159	41.8326
197	48.2053
238	55.4707
275	48.4369
313	35.3517
352	49.674
390	34.9214
427	48.9899
464	23.969
14	59.1717
53	15.2457
90	45.2421
126	40.8378
163	41.2329
201	58.2532
242	44.4778
279	49.8852
317	30.0782
357	57.5069
394	31.0724
431	55.23
469	19.0499
19	51.8099
57	19.0488
94	39.8359
131	48.4457
167	38.2543
205	57.255
246	40.0236
283	57.8837
321	27.3322
362	62.2532
398	28.8067
436	58.4247
473	24.8601
23	38.7329
61	15.2822
98	28.6505
135	46.7124
172	27.7373
213	56.7907
250	24.9437
287	55.1953
325	20.6559
366	57.1572
402	31.6116
440	43.1748
477	23.6029
27	32.6562
65	21.9344
102	23.6549
139	57.6054
176	30.1807
218	48.482
255	16.4303
292	55.6202
329	26.4869
370	54.162
406	37.2531
444	39.1427
481	21.0202
31	31.2729
69	36.617
106	22.2821
143	63.3003
180	28.0494
222	66.0881
259	27.0806
296	60.0604
334	29.741
374	54.9108
410	36.9516
448	43.2744
485	27.546
35	23.2871
74	40.8029
110	17.6564
147	57.0897
185	30.3422
226	72.0521
263	31.0468
300	53.0903
339	27.42
378	48.5271
415	37.6937
452	35.9485
489	32.7702
40	21.039
78	47.866
114	27.8904
151	53.9278
189	43.6404
230	62.8038
267	32.157
304	44.0484
343	36.204
382	39.5971
419	40.0246
456	26.9716
493	32.9685
44	12.9831
82	50.8617
118	31.3275
155	50.0783
193	47.0138
234	62.6403
271	43.3312
308	44.653
348	45.3716
386	40.6432
423	46.676
460	27.199
497	46.1223
49	10.9027
86	52.4653
122	36.6457
159	43.8428
197	52.3694
238	56.9833
275	49.5791
313	36.0428
352	50.3289
390	33.2462
427	50.3082
464	23.0162
14	59.2839
53	12.2115
90	47.8412
126	42.1414
163	39.3345
201	59.6181
242	47.0846
279	51.2376
317	27.9441
357	53.8008
394	24.6137
431	54.1781
469	18.1789
19	48.3034
57	15.1176
94	35.9114
131	44.0897
167	36.1661
205	52.6528
246	35.1035
283	52.7866
321	24.0678
362	58.6043
398	28.4051
436	53.5819
473	22.6495
23	41.7233
61	21.9208
98	30.799
135	52.0604
172	27.8233
213	63.1532
250	32.9688
287	63.0623
325	24.9813
366	64.4972
402	34.2248
440	50.1509
477	29.9343
27	37.8148
65	26.2433
102	31.4873
139	62.7997
176	34.9809
218	52.8747
255	19.7914
292	58.5166
329	23.4582
370	53.5427
406	34.992
444	42.9828
481	14.8735
31	31.2387
69	33.4157
106	27.0341
143	60.7417
180	32.1865
222	60.7289
259	22.6535
296	54.167
334	31.3805
374	48.37
410	33.2221
448	38.8395
485	19.8044
35	22.7621
74	35.461
110	17.5579
147	53.854
185	31.9503
226	62.2039
263	21.9892
300	44.5786
339	28.6929
378	41.9747
415	33.9524
452	28.4182
489	25.6221
40	18.9864
78	45.9362
114	25.6743
151	52.1953
189	41.4046
230	62.1474
267	31.0369
304	43.0627
343	34.6227
382	38.7891
419	38.7917
456	25.8022
493	32.4733
44	15.0501
82	50.3269
118	31.5016
155	47.7232
193	47.5941
234	58.907
271	39.1981
308	39.8141
348	41.9464
386	35.0956
423	42.5796
460	22.1562
497	40.1937
49	10.3892
86	52.2576
122	36.4338
159	43.3499
197	52.0635
238	56.9793
275	49.4494
313	35.6833
352	49.7972
390	32.7364
427	49.9164
464	22.8556
14	54.9707
53	14.3218
90	42.6182
126	39.0076
163	35.7379
201	54.4268
242	49.7879
279	53.867
317	29.3499
357	55.3578
394	30.4229
431	55.2638
469	26.7097
19	48.1994
57	13.5698
94	36.6535
131	43.4057
167	36.0115
205	52.3009
246	33.3852
283	50.9671
321	22.092
362	56.0953
398	25.8191
436	51.9834
473	18.9093
23	44.4195
61	23.4702
98	35.978
135	54.6957
172	28.9006
213	67.2515
250	35.2249
287	65.5944
325	22.0348
366	62.6808
402	28.6743
440	52.7985
477	24.2493
27	35.661
65	29.7223
102	27.2597
139	63.0691
176	26.4208
218	59.2213
255	28.2327
292	65.2252
329	23.2072
370	60.13
406	34.2569
444	47.5272
481	22.1469
31	32.5899
69	37.4635
106	25.2821
143	64.0777
180	30.3343
222	66.4941
259	27.59
296	60.0341
334	29.9143
374	53.9476
410	35.8584
448	43.6439
485	25.6902
35	26.252
74	43.8257
110	21.9673
147	59.679
185	34.3883
226	73.2767
263	32.5097
300	54.3084
339	29.1236
378	48.8624
415	38.1307
452	37.5042
489	32.1687
40	17.8
78	48.8729
114	26.2987
151	54.1235
189	40.241
230	69.6861
267	37.7439
304	49.3456
343	34.7829
382	43.5607
419	42.2198
456	32.0001
493	38.7394
44	15.67
82	45.4519
118	28.0695
155	46.5905
193	46.0256
234	51.966
271	33.1631
308	36.0407
348	41.7359
386	34.4917
423	40.4341
460	17.9797
497	37.0922
49	13.3674
86	52.6161
122	36.8558
159	45.7853
197	53.2518
238	55.8698
275	49.1864
313	37.0704
352	52.4659
390	35.4377
427	51.4687
464	23.1382
14	59.2897
53	15.8683
90	45.3738
126	41.2796
163	41.2039
201	58.3125
242	45.9514
279	51.3074
317	30.9278
357	58.2488
394	31.9158
431	56.232
469	20.9104
19	47.5193
57	16.6665
94	36.646
131	45.3276
167	33.0276
205	54.6354
246	41.6118
283	58.3479
321	24.2611
362	59.6106
398	26.5957
436	56.5798
473	26.9212
23	41.5615
61	21.7062
98	30.6399
135	51.862
172	27.724
213	62.9449
250	32.774
287	62.8448
325	24.8355
366	64.3018
402	34.1463
440	49.9336
477	29.8218
27	34.515
65	27.8512
102	24.9712
139	61.4328
176	26.5202
218	56.4517
255	25.4741
292	63.1343
329	25.4314
370	59.7458
406	36.3245
444	45.5802
481	23.5191
31	30.0106
69	29.6514
106	24.1694
143	58.8289
180	31.7075
222	54.9453
259	17.2646
296	50.7049
334	35.3441
374	48.5903
410	36.9704
448	35.7755
485	22.5236
35	24.6612
74	38.9243
110	15.8314
147	57.5354
185	31.903
226	67.5221
263	27.6122
300	50.7346
339	30.6141
378	48.2483
415	38.9836
452	34.0838
489	32.3182
40	19.4584
78	43.9203
114	22.8513
151	52.5749
189	40.0741
230	60.7236
267	29.9628
304	43.4405
343	36.3334
382	41.0389
419	40.5211
456	26.11
493	34.7182
44	15.8837
82	48.2675
118	30.2134
155	46.2998
193	46.9763
234	55.1967
271	35.6131
308	36.6703
348	40.5166
386	32.8253
423	40.2313
460	18.7835
497	36.9295
49	13.1113
86	48.11
122	32.4676
159	42.4786
197	48.8314
238	53.298
275	46.6051
313	34.5108
352	49.9482
390	34.6462
427	48.4574
464	22.1142
14	56.3629
53	13.0813
90	42.326
126	37.5903
163	39.0392
201	55.4319
242	40.9405
279	46.1749
317	26.9569
357	54.6614
394	29.3847
431	51.6879
469	16.9888
19	47.1964
57	17.0608
94	34.855
131	44.584
167	34.1768
205	53.1896
246	39.7663
283	56.8021
321	25.5759
362	60.8009
398	30.0245
436	55.8548
473	28.1507
23	40.7433
61	16.7152
98	30.3329
135	48.0128
172	30.3294
213	56.933
250	23.5266
287	54.8027
325	22.5694
366	57.9735
402	33.3168
440	43.6808
477	23.2326
27	36.4894
65	25.28
102	27.9812
139	61.5108
176	33.256
218	51.3138
255	17.7769
292	58.27
329	27.0238
370	55.9749
406	38.3233
444	42.3388
481	20.2511
31	33.0303
69	33.2863
106	25.7338
143	62.4435
180	33.5561
222	57.9583
259	20.8222
296	54.379
334	36.9206
374	52.187
410	39.6118
448	39.5283
485	25.4399
35	26.6521
74	39.075
110	19.1771
147	58.1501
185	35.2104
226	64.4034
263	25.3553
300	48.4025
339	32.4282
378	46.2541
415	38.2339
452	32.528
489	29.6265
40	20.9721
78	47.9346
114	26.028
151	55.666
189	42.5136
230	65.1986
267	34.4396
304	47.4785
343	38.098
382	43.8721
419	43.3467
456	30.0894
493	37.7491
44	12.6558
82	50.4385
118	30.9173
155	49.1243
193	46.5816
234	61.9535
271	42.4562
308	43.5164
348	44.2374
386	39.307
423	45.5304
460	26.0799
497	44.8691
49	11.1952
86	47.8959
122	32.2498
159	40.362
197	47.574
238	55.1569
275	47.7134
313	33.9545
352	47.9383
390	33.0017
427	47.622
464	22.8972
14	60.3976
53	15.6711
90	47.5632
126	43.1612
163	41.1517
201	59.9264
242	48.9621
279	53.8592
317	31.5427
357	58.1326
394	30.4541
431	57.5594
469	22.0858
19	52.5399
57	17.9926
94	41.5888
131	48.4714
167	38.727
205	57.7154
246	38.4729
283	56.2757
321	25.5528
362	59.6757
398	25.2502
436	57.2489
473	19.9772
23	42.1569
61	19.5491
98	31.6739
135	50.8642
172	29.7076
213	60.85
250	28.2361
287	59.3474
325	23.3568
366	61.2264
402	33.06
440	47.5504
477	25.1122
27	37.407
65	26.3117
102	29.2403
139	62.6278
176	33.7516
218	52.5991
255	18.9446
292	59.301
329	26.4513
370	56.3235
406	37.9086
444	43.4076
481	19.4754
31	34.2157
69	36.7328
106	26.6612
143	64.8098
180	33.2565
222	63.2645
259	25.2966
296	58.4203
334	34.4456
374	54.1226
410	38.6465
448	42.9074
485	26.0148
35	27.2892
74	40.9602
110	19.7658
147	59.5411
185	35.5766
226	67.1269
263	27.8413
300	50.805
339	32.5153
378	48.0176
415	39.3034
452	34.6718
489	31.2639
500	46.6145