File: doc/example/reference_2011/peptso-xrd-47-330-rawDistances.dat
3.016e+01
2.963e+01
2.471e+01
3.247e+01
3.444e+01
3.411e+01
3.674e+01
3.731e+01
3.307e+01
3.620e+01
2.993e+01
3.120e+01
3.092e+01
3.350e+01
3.553e+01
3.000e+01
2.952e+01
2.454e+01
3.231e+01
3.429e+01
3.392e+01
3.651e+01
3.707e+01
3.289e+01
3.604e+01
2.981e+01
3.099e+01
3.074e+01
3.334e+01
3.526e+01
2.975e+01
2.921e+01
2.441e+01
3.209e+01
3.411e+01
3.372e+01
3.645e+01
3.694e+01
3.281e+01
3.585e+01
2.959e+01
3.095e+01
3.067e+01
3.323e+01
3.524e+01
3.015e+01
2.969e+01
2.458e+01
3.243e+01
3.436e+01
3.403e+01
3.651e+01
3.714e+01
3.287e+01
3.613e+01
2.992e+01
3.095e+01
3.072e+01
3.335e+01
3.524e+01
2.512e+01
2.458e+01
1.917e+01
2.727e+01
2.896e+01
2.895e+01
3.121e+01
3.222e+01
2.737e+01
3.086e+01
2.452e+01
2.554e+01
2.523e+01
2.784e+01
3.009e+01
2.689e+01
2.641e+01
2.084e+01
2.902e+01
3.067e+01
3.065e+01
3.276e+01
3.381e+01
2.894e+01
3.257e+01
2.629e+01
2.706e+01
2.679e+01
2.946e+01
3.157e+01
2.406e+01
2.343e+01
1.868e+01
2.636e+01
2.829e+01
2.808e+01
3.085e+01
3.148e+01
2.711e+01
3.008e+01
2.373e+01
2.535e+01
2.499e+01
2.747e+01
2.979e+01
2.493e+01
2.423e+01
1.947e+01
2.721e+01
2.906e+01
2.897e+01
3.170e+01
3.244e+01
2.784e+01
3.090e+01
2.446e+01
2.614e+01
2.573e+01
2.819e+01
3.070e+01
2.556e+01
2.481e+01
2.030e+01
2.788e+01
2.979e+01
2.966e+01
3.255e+01
3.317e+01
2.870e+01
3.160e+01
2.516e+01
2.704e+01
2.661e+01
2.901e+01
3.157e+01
2.597e+01
2.524e+01
2.099e+01
2.835e+01
3.042e+01
3.010e+01
3.319e+01
3.359e+01
2.947e+01
3.215e+01
2.578e+01
2.779e+01
2.738e+01
2.976e+01
3.218e+01
2.676e+01
2.604e+01
2.178e+01
2.915e+01
3.122e+01
3.089e+01
3.398e+01
3.436e+01
3.026e+01
3.295e+01
2.658e+01
2.857e+01
2.817e+01
3.055e+01
3.295e+01
2.623e+01
2.548e+01
2.118e+01
2.860e+01
3.061e+01
3.036e+01
3.341e+01
3.387e+01
2.963e+01
3.237e+01
2.597e+01
2.797e+01
2.754e+01
2.992e+01
3.241e+01
2.244e+01
2.188e+01
1.789e+01
2.491e+01
2.723e+01
2.656e+01
2.988e+01
2.991e+01
2.651e+01
2.880e+01
2.266e+01
2.472e+01
2.441e+01
2.678e+01
2.876e+01
2.287e+01
2.231e+01
1.837e+01
2.534e+01
2.770e+01
2.698e+01
3.033e+01
3.031e+01
2.699e+01
2.924e+01
2.313e+01
2.519e+01
2.489e+01
2.725e+01
2.920e+01
2.258e+01
2.211e+01
1.849e+01
2.512e+01
2.767e+01
2.668e+01
3.023e+01
2.991e+01
2.713e+01
2.908e+01
2.315e+01
2.528e+01
2.505e+01
2.738e+01
2.904e+01
2.818e+01
2.779e+01
2.405e+01
3.073e+01
3.333e+01
3.222e+01
3.571e+01
3.527e+01
3.268e+01
3.471e+01
2.885e+01
3.073e+01
3.057e+01
3.298e+01
3.438e+01
2.819e+01
2.775e+01
2.399e+01
3.074e+01
3.329e+01
3.226e+01
3.574e+01
3.537e+01
3.262e+01
3.470e+01
2.878e+01
3.071e+01
3.051e+01
3.291e+01
3.445e+01
2.649e+01
2.593e+01
2.226e+01
2.903e+01
3.149e+01
3.064e+01
3.416e+01
3.393e+01
3.088e+01
3.297e+01
2.691e+01
2.908e+01
2.879e+01
3.113e+01
3.300e+01
2.427e+01
2.361e+01
1.981e+01
2.675e+01
2.906e+01
2.845e+01
3.186e+01
3.187e+01
2.840e+01
3.064e+01
2.444e+01
2.668e+01
2.633e+01
2.864e+01
3.080e+01
3.105e+01
3.079e+01
2.553e+01
3.332e+01
3.534e+01
3.478e+01
3.712e+01
3.762e+01
3.375e+01
3.701e+01
3.103e+01
3.168e+01
3.157e+01
3.430e+01
3.568e+01
3.146e+01
3.128e+01
2.637e+01
3.381e+01
3.607e+01
3.519e+01
3.778e+01
3.791e+01
3.468e+01
3.759e+01
3.179e+01
3.254e+01
3.251e+01
3.520e+01
3.626e+01
3.145e+01
3.125e+01
2.586e+01
3.368e+01
3.567e+01
3.510e+01
3.730e+01
3.785e+01
3.398e+01
3.734e+01
3.143e+01
3.187e+01
3.181e+01
3.457e+01
3.582e+01
3.132e+01
3.127e+01
2.589e+01
3.353e+01
3.561e+01
3.482e+01
3.696e+01
3.734e+01
3.391e+01
3.717e+01
3.152e+01
3.169e+01
3.174e+01
3.454e+01
3.534e+01
3.064e+01
3.077e+01
2.567e+01
3.289e+01
3.519e+01
3.403e+01
3.631e+01
3.631e+01
3.365e+01
3.657e+01
3.123e+01
3.132e+01
3.150e+01
3.428e+01
3.456e+01
3.093e+01
3.094e+01
2.571e+01
3.317e+01
3.536e+01
3.441e+01
3.665e+01
3.686e+01
3.375e+01
3.685e+01
3.130e+01
3.149e+01
3.158e+01
3.437e+01
3.499e+01
3.093e+01
3.092e+01
2.584e+01
3.322e+01
3.548e+01
3.447e+01
3.686e+01
3.696e+01
3.397e+01
3.694e+01
3.137e+01
3.173e+01
3.180e+01
3.456e+01
3.521e+01
3.097e+01
3.099e+01
2.605e+01
3.329e+01
3.563e+01
3.451e+01
3.700e+01
3.695e+01
3.421e+01
3.703e+01
3.153e+01
3.194e+01
3.204e+01
3.478e+01
3.532e+01
2.971e+01
2.976e+01
2.492e+01
3.204e+01
3.444e+01
3.324e+01
3.579e+01
3.565e+01
3.309e+01
3.580e+01
3.037e+01
3.081e+01
3.093e+01
3.365e+01
3.410e+01
2.892e+01
2.879e+01
2.281e+01
3.095e+01
3.261e+01
3.233e+01
3.396e+01
3.499e+01
3.055e+01
3.439e+01
2.856e+01
2.842e+01
2.839e+01
3.123e+01
3.247e+01
3.063e+01
3.047e+01
2.466e+01
3.272e+01
3.448e+01
3.412e+01
3.590e+01
3.680e+01
3.251e+01
3.624e+01
3.037e+01
3.038e+01
3.034e+01
3.316e+01
3.441e+01
3.122e+01
3.111e+01
2.537e+01
3.334e+01
3.517e+01
3.469e+01
3.652e+01
3.729e+01
3.324e+01
3.687e+01
3.108e+01
3.107e+01
3.107e+01
3.390e+01
3.498e+01
3.149e+01
3.144e+01
2.580e+01
3.363e+01
3.556e+01
3.493e+01
3.682e+01
3.744e+01
3.368e+01
3.719e+01
3.150e+01
3.147e+01
3.151e+01
3.434e+01
3.522e+01
2.580e+01
2.525e+01
1.960e+01
2.787e+01
2.940e+01
2.956e+01
3.158e+01
3.282e+01
2.762e+01
3.137e+01
2.501e+01
2.582e+01
2.549e+01
2.813e+01
3.048e+01
2.577e+01
2.532e+01
1.955e+01
2.783e+01
2.939e+01
2.945e+01
3.138e+01
3.258e+01
2.754e+01
3.132e+01
2.507e+01
2.565e+01
2.539e+01
2.809e+01
3.018e+01
2.536e+01
2.481e+01
1.944e+01
2.753e+01
2.923e+01
2.921e+01
3.150e+01
3.248e+01
2.765e+01
3.112e+01
2.478e+01
2.583e+01
2.551e+01
2.812e+01
3.038e+01
2.433e+01
2.380e+01
1.837e+01
2.648e+01
2.817e+01
2.815e+01
3.041e+01
3.142e+01
2.658e+01
3.006e+01
2.374e+01
2.475e+01
2.444e+01
2.705e+01
2.928e+01
2.838e+01
2.782e+01
2.333e+01
3.078e+01
3.292e+01
3.243e+01
3.539e+01
3.569e+01
3.183e+01
3.460e+01
2.837e+01
3.000e+01
2.970e+01
3.220e+01
3.421e+01
3.003e+01
2.954e+01
2.477e+01
3.239e+01
3.447e+01
3.400e+01
3.676e+01
3.717e+01
3.319e+01
3.617e+01
2.996e+01
3.130e+01
3.105e+01
3.361e+01
3.552e+01
2.923e+01
2.870e+01
2.423e+01
3.164e+01
3.383e+01
3.326e+01
3.624e+01
3.648e+01
3.274e+01
3.548e+01
2.928e+01
3.087e+01
3.060e+01
3.311e+01
3.503e+01
2.909e+01
2.850e+01
2.376e+01
3.143e+01
3.342e+01
3.310e+01
3.586e+01
3.640e+01
3.216e+01
3.518e+01
2.887e+01
3.035e+01
3.003e+01
3.255e+01
3.471e+01
3.050e+01
3.009e+01
2.437e+01
3.261e+01
3.422e+01
3.418e+01
3.609e+01
3.720e+01
3.232e+01
3.612e+01
2.992e+01
3.038e+01
3.017e+01
3.290e+01
3.482e+01
3.001e+01
2.951e+01
2.400e+01
3.216e+01
3.383e+01
3.380e+01
3.592e+01
3.695e+01
3.207e+01
3.573e+01
2.943e+01
3.020e+01
2.993e+01
3.260e+01
3.471e+01
2.904e+01
2.858e+01
2.287e+01
3.113e+01
3.271e+01
3.275e+01
3.468e+01
3.585e+01
3.083e+01
3.464e+01
2.837e+01
2.894e+01
2.869e+01
3.139e+01
3.347e+01
2.887e+01
2.833e+01
2.271e+01
3.097e+01
3.252e+01
3.263e+01
3.464e+01
3.583e+01
3.071e+01
3.448e+01
2.814e+01
2.888e+01
2.857e+01
3.124e+01
3.349e+01
3.018e+01
2.990e+01
2.461e+01
3.244e+01
3.443e+01
3.391e+01
3.623e+01
3.679e+01
3.283e+01
3.612e+01
3.011e+01
3.077e+01
3.066e+01
3.337e+01
3.482e+01
2.489e+01
2.449e+01
1.835e+01
2.681e+01
2.817e+01
2.841e+01
2.999e+01
3.148e+01
2.608e+01
3.016e+01
2.397e+01
2.418e+01
2.394e+01
2.669e+01
2.880e+01
2.772e+01
2.735e+01
2.119e+01
2.965e+01
3.100e+01
3.121e+01
3.269e+01
3.419e+01
2.882e+01
3.299e+01
2.684e+01
2.690e+01
2.669e+01
2.947e+01
3.145e+01
2.855e+01
2.819e+01
2.202e+01
3.048e+01
3.183e+01
3.202e+01
3.348e+01
3.497e+01
2.963e+01
3.381e+01
2.768e+01
2.769e+01
2.749e+01
3.028e+01
3.221e+01
3.069e+01
3.076e+01
2.545e+01
3.289e+01
3.506e+01
3.409e+01
3.622e+01
3.644e+01
3.340e+01
3.653e+01
3.107e+01
3.110e+01
3.124e+01
3.404e+01
3.451e+01
3.139e+01
3.117e+01
2.563e+01
3.358e+01
3.546e+01
3.501e+01
3.708e+01
3.779e+01
3.368e+01
3.719e+01
3.124e+01
3.158e+01
3.151e+01
3.428e+01
3.562e+01
3.097e+01
3.067e+01
2.521e+01
3.318e+01
3.506e+01
3.467e+01
3.683e+01
3.755e+01
3.333e+01
3.681e+01
3.076e+01
3.129e+01
3.116e+01
3.390e+01
3.543e+01
2.757e+01
2.711e+01
2.104e+01
2.952e+01
3.085e+01
3.115e+01
3.273e+01
3.425e+01
2.874e+01
3.287e+01
2.661e+01
2.689e+01
2.661e+01
2.934e+01
3.156e+01
2.717e+01
2.673e+01
2.067e+01
2.912e+01
3.048e+01
3.074e+01
3.234e+01
3.382e+01
2.840e+01
3.249e+01
2.625e+01
2.652e+01
2.626e+01
2.900e+01
3.116e+01
2.687e+01
2.637e+01
2.036e+01
2.882e+01
3.015e+01
3.048e+01
3.213e+01
3.364e+01
2.810e+01
3.219e+01
2.588e+01
2.628e+01
2.597e+01
2.868e+01
3.100e+01
2.159e+01
2.087e+01
1.615e+01
2.384e+01
2.569e+01
2.563e+01
2.841e+01
2.916e+01
2.456e+01
2.753e+01
2.109e+01
2.289e+01
2.247e+01
2.488e+01
2.746e+01
2.249e+01
2.176e+01
1.670e+01
2.465e+01
2.631e+01
2.645e+01
2.895e+01
2.997e+01
2.495e+01
2.824e+01
2.174e+01
2.330e+01
2.285e+01
2.532e+01
2.802e+01
2.126e+01
2.054e+01
1.529e+01
2.336e+01
2.492e+01
2.516e+01
2.753e+01
2.868e+01
2.349e+01
2.689e+01
2.039e+01
2.184e+01
2.139e+01
2.387e+01
2.661e+01
1.961e+01
1.911e+01
1.325e+01
2.159e+01
2.307e+01
2.327e+01
2.526e+01
2.657e+01
2.135e+01
2.503e+01
1.873e+01
1.953e+01
1.921e+01
2.184e+01
2.421e+01
2.057e+01
2.007e+01
1.414e+01
2.253e+01
2.396e+01
2.422e+01
2.611e+01
2.750e+01
2.215e+01
2.594e+01
1.963e+01
2.034e+01
2.001e+01
2.266e+01
2.505e+01
2.301e+01
2.223e+01
1.781e+01
2.532e+01
2.723e+01
2.713e+01
3.008e+01
3.071e+01
2.623e+01
2.904e+01
2.258e+01
2.461e+01
2.415e+01
2.650e+01
2.916e+01
2.324e+01
2.247e+01
1.778e+01
2.549e+01
2.729e+01
2.730e+01
3.005e+01
3.086e+01
2.613e+01
2.916e+01
2.267e+01
2.450e+01
2.404e+01
2.644e+01
2.913e+01
2.158e+01
2.084e+01
1.645e+01
2.390e+01
2.587e+01
2.568e+01
2.868e+01
2.923e+01
2.492e+01
2.765e+01
2.124e+01
2.327e+01
2.284e+01
2.520e+01
2.773e+01
2.221e+01
2.149e+01
1.671e+01
2.445e+01
2.626e+01
2.624e+01
2.896e+01
2.976e+01
2.509e+01
2.812e+01
2.167e+01
2.342e+01
2.299e+01
2.542e+01
2.801e+01
2.412e+01
2.349e+01
2.000e+01
2.665e+01
2.911e+01
2.831e+01
3.192e+01
3.169e+01
2.862e+01
3.060e+01
2.451e+01
2.688e+01
2.656e+01
2.882e+01
3.083e+01
2.518e+01
2.450e+01
2.072e+01
2.766e+01
2.997e+01
2.936e+01
3.278e+01
3.279e+01
2.930e+01
3.155e+01
2.534e+01
2.759e+01
2.723e+01
2.954e+01
3.172e+01
2.453e+01
2.383e+01
2.009e+01
2.701e+01
2.930e+01
2.873e+01
3.216e+01
3.220e+01
2.866e+01
3.090e+01
2.466e+01
2.697e+01
2.659e+01
2.888e+01
3.114e+01
2.479e+01
2.410e+01
2.041e+01
2.728e+01
2.961e+01
2.899e+01
3.246e+01
3.244e+01
2.899e+01
3.118e+01
2.497e+01
2.730e+01
2.693e+01
2.921e+01
3.142e+01
2.832e+01
2.797e+01
2.359e+01
3.077e+01
3.314e+01
3.227e+01
3.532e+01
3.528e+01
3.213e+01
3.466e+01
2.870e+01
3.013e+01
2.998e+01
3.252e+01
3.397e+01
2.899e+01
2.872e+01
2.377e+01
3.133e+01
3.350e+01
3.278e+01
3.540e+01
3.567e+01
3.214e+01
3.510e+01
2.916e+01
3.007e+01
2.997e+01
3.263e+01
3.397e+01
2.923e+01
2.870e+01
2.352e+01
3.147e+01
3.330e+01
3.312e+01
3.553e+01
3.632e+01
3.177e+01
3.513e+01
2.883e+01
2.991e+01
2.962e+01
3.224e+01
3.433e+01
2.826e+01
2.759e+01
2.260e+01
3.050e+01
3.227e+01
3.224e+01
3.477e+01
3.563e+01
3.086e+01
3.415e+01
2.772e+01
2.912e+01
2.874e+01
3.127e+01
3.371e+01
2.788e+01
2.725e+01
2.213e+01
3.010e+01
3.184e+01
3.182e+01
3.427e+01
3.517e+01
3.037e+01
3.373e+01
2.732e+01
2.861e+01
2.824e+01
3.079e+01
3.319e+01
2.918e+01
2.859e+01
2.361e+01
3.146e+01
3.333e+01
3.314e+01
3.571e+01
3.643e+01
3.192e+01
3.515e+01
2.880e+01
3.011e+01
2.979e+01
3.235e+01
3.457e+01
2.750e+01
2.691e+01
2.293e+01
2.998e+01
3.231e+01
3.163e+01
3.494e+01
3.494e+01
3.152e+01
3.388e+01
2.771e+01
2.972e+01
2.941e+01
3.180e+01
3.379e+01
2.607e+01
2.539e+01
2.143e+01
2.853e+01
3.076e+01
3.024e+01
3.354e+01
3.368e+01
2.998e+01
3.239e+01
2.612e+01
2.827e+01
2.790e+01
3.024e+01
3.249e+01
2.761e+01
2.704e+01
2.303e+01
3.009e+01
3.243e+01
3.172e+01
3.501e+01
3.499e+01
3.162e+01
3.399e+01
2.785e+01
2.980e+01
2.951e+01
3.192e+01
3.384e+01
2.786e+01
2.734e+01
2.331e+01
3.035e+01
3.273e+01
3.195e+01
3.524e+01
3.517e+01
3.191e+01
3.426e+01
2.817e+01
3.005e+01
2.979e+01
3.222e+01
3.403e+01
2.991e+01
2.937e+01
2.444e+01
3.222e+01
3.417e+01
3.386e+01
3.648e+01
3.708e+01
3.279e+01
3.595e+01
2.966e+01
3.093e+01
3.065e+01
3.323e+01
3.528e+01
2.805e+01
2.743e+01
2.233e+01
3.028e+01
3.204e+01
3.200e+01
3.446e+01
3.534e+01
3.057e+01
3.392e+01
2.752e+01
2.881e+01
2.845e+01
3.100e+01
3.337e+01
2.843e+01
2.779e+01
2.277e+01
3.067e+01
3.247e+01
3.239e+01
3.492e+01
3.574e+01
3.105e+01
3.434e+01
2.794e+01
2.928e+01
2.892e+01
3.147e+01
3.383e+01
2.842e+01
2.784e+01
2.306e+01
3.075e+01
3.273e+01
3.242e+01
3.516e+01
3.571e+01
3.146e+01
3.450e+01
2.819e+01
2.964e+01
2.933e+01
3.186e+01
3.400e+01
2.886e+01
2.864e+01
2.393e+01
3.126e+01
3.357e+01
3.267e+01
3.546e+01
3.549e+01
3.235e+01
3.508e+01
2.925e+01
3.025e+01
3.019e+01
3.282e+01
3.399e+01
3.037e+01
3.011e+01
2.501e+01
3.268e+01
3.478e+01
3.412e+01
3.660e+01
3.697e+01
3.330e+01
3.641e+01
3.047e+01
3.122e+01
3.113e+01
3.382e+01
3.515e+01
2.948e+01
2.931e+01
2.416e+01
3.176e+01
3.390e+01
3.314e+01
3.555e+01
3.586e+01
3.239e+01
3.548e+01
2.967e+01
3.025e+01
3.022e+01
3.294e+01
3.404e+01
3.036e+01
3.011e+01
2.503e+01
3.267e+01
3.479e+01
3.411e+01
3.660e+01
3.694e+01
3.332e+01
3.641e+01
3.048e+01
3.123e+01
3.115e+01
3.385e+01
3.514e+01
3.103e+01
3.068e+01
2.535e+01
3.327e+01
3.518e+01
3.479e+01
3.707e+01
3.774e+01
3.355e+01
3.693e+01
3.084e+01
3.154e+01
3.138e+01
3.409e+01
3.571e+01
3.086e+01
3.060e+01
2.526e+01
3.310e+01
3.508e+01
3.455e+01
3.681e+01
3.738e+01
3.343e+01
3.677e+01
3.079e+01
3.135e+01
3.126e+01
3.399e+01
3.537e+01
3.099e+01
3.067e+01
2.514e+01
3.317e+01
3.499e+01
3.468e+01
3.678e+01
3.760e+01
3.322e+01
3.678e+01
3.069e+01
3.120e+01
3.105e+01
3.379e+01
3.541e+01
3.074e+01
3.028e+01
2.505e+01
3.299e+01
3.486e+01
3.458e+01
3.695e+01
3.769e+01
3.328e+01
3.665e+01
3.043e+01
3.136e+01
3.113e+01
3.378e+01
3.569e+01
2.540e+01
2.496e+01
1.877e+01
2.729e+01
2.855e+01
2.891e+01
3.040e+01
3.201e+01
2.640e+01
3.059e+01
2.436e+01
2.455e+01
2.428e+01
2.702e+01
2.926e+01
2.376e+01
2.332e+01
1.719e+01
2.568e+01
2.700e+01
2.731e+01
2.892e+01
3.045e+01
2.494e+01
2.902e+01
2.277e+01
2.309e+01
2.281e+01
2.553e+01
2.778e+01
2.523e+01
2.480e+01
1.855e+01
2.709e+01
2.833e+01
2.871e+01
3.015e+01
3.179e+01
2.615e+01
3.038e+01
2.416e+01
2.429e+01
2.403e+01
2.677e+01
2.900e+01
2.794e+01
2.781e+01
2.151e+01
2.983e+01
3.126e+01
3.121e+01
3.248e+01
3.385e+01
2.896e+01
3.312e+01
2.731e+01
2.685e+01
2.682e+01
2.969e+01
3.103e+01
2.952e+01
2.932e+01
2.315e+01
3.147e+01
3.296e+01
3.291e+01
3.434e+01
3.564e+01
3.075e+01
3.484e+01
2.891e+01
2.868e+01
2.860e+01
3.144e+01
3.293e+01
2.877e+01
2.854e+01
2.234e+01
3.070e+01
3.214e+01
3.215e+01
3.356e+01
3.492e+01
2.992e+01
3.405e+01
2.809e+01
2.787e+01
2.777e+01
3.061e+01
3.218e+01