File: doc/example/reference_pre_2017/dat/peptso-xrd-47-rawDistances.dat
14	57.5647
53	11.4654
90	44.9242
126	39.0606
163	39.2492
201	57.4149
242	41.1818
279	45.8707
317	25.6458
357	52.6396
394	25.2558
431	50.8426
469	13.3454
19	48.1383
57	12.9264
94	37.7281
131	43.483
167	35.1612
205	52.8906
246	34.305
283	51.4435
321	20.5574
362	54.4445
398	22.7728
436	51.8373
473	16.987
23	42.7719
61	20.219
98	32.5041
135	51.6365
172	29.9126
213	61.8475
250	29.0708
287	60.2451
325	23.3499
366	61.5944
402	32.6644
440	48.4199
477	24.8086
27	34.0034
65	25.5646
102	25.0396
139	60.3549
176	28.1787
218	53.7239
255	22.0391
292	60.3497
329	24.6292
370	57.1206
406	35.7654
444	43.2386
481	20.966
31	28.8715
69	31.5094
106	20.4532
143	59.7462
180	27.9804
222	59.3513
259	20.7489
296	54.4621
334	32.2212
374	51.4866
410	36.9389
448	38.2839
485	25.2091
35	27.2654
74	41.5223
110	19.6145
147	59.8877
185	35.3022
226	68.3516
263	28.8653
300	51.8228
339	32.329
378	48.8038
415	39.7291
452	35.514
489	32.1068
40	18.7176
78	46.1046
114	23.5593
151	53.9417
189	39.7873
230	65.3872
267	34.146
304	47.1753
343	36.4471
382	43.5923
419	42.4472
456	29.7242
493	38.0132
44	15.7437
82	47.0171
118	29.2975
155	47.4614
193	46.9464
234	53.7285
271	34.8382
308	37.318
348	42.3653
386	35.0416
423	41.4536
460	19.232
497	38.1115
49	12.9739
86	52.1418
122	36.3018
159	45.9036
197	54.2603
238	51.0302
275	44.6342
313	34.1431
352	51.3447
390	33.0006
427	49.0688
464	18.1999
14	57.1623
53	12.1059
90	43.9067
126	38.3143
163	39.4293
201	56.7066
242	40.0478
279	45.0407
317	25.8186
357	53.188
394	26.7156
431	50.644
469	13.4587
19	47.9916
57	13.891
94	35.7076
131	42.894
167	36.6333
205	51.3855
246	31.9811
283	49.8073
321	22.8479
362	56.6082
398	27.8042
436	51.3811
473	19.7763
23	43.5227
61	20.2377
98	32.7801
135	51.5672
172	31.7379
213	60.592
250	26.8256
287	58.6379
325	24.6877
366	61.553
402	34.4253
440	47.5697
477	24.6892
27	39.1898
65	29.2179
102	33.0259
139	65.0786
176	34.2442
218	57.0107
255	24.3409
292	62.256
329	22.0912
370	55.8772
406	33.8448
444	46.2549
481	15.1504
31	32.1415
69	35.3369
106	27.9217
143	62.0071
180	32.4055
222	63.3055
259	25.1025
296	56.217
334	30.3135
374	49.4271
410	32.8526
448	40.6843
485	20.4721
35	27.0068
74	41.124
110	19.9147
147	59.4006
185	35.363
226	67.646
263	28.138
300	50.9714
339	31.9949
378	47.8596
415	38.94
452	34.7523
489	31.0611
40	18.1692
78	46.3648
114	23.6442
151	53.775
189	39.4273
230	66.2936
267	34.8486
304	47.63
343	35.9465
382	43.6546
419	42.3612
456	30.1749
493	38.2993
44	11.3931
82	48.8207
118	29.3661
155	48.8873
193	45.3805
234	61.0259
271	41.819
308	43.4868
348	44.5506
386	40.1855
423	45.5888
460	26.1064
497	45.3594
49	12.9373
86	47.7866
122	32.1145
159	42.2949
197	48.6983
238	52.5882
275	45.9236
313	33.9987
352	49.6706
390	34.3021
427	47.9995
464	21.463
14	51.2557
53	10.67
90	37.169
126	32.2584
163	34.7647
201	50.2659
242	37.4761
279	42.1033
317	22.5864
357	50.5332
394	27.8433
431	46.843
469	17.6814
19	47.1375
57	16.4476
94	34.8141
131	44.2869
167	34.2192
205	52.9196
246	38.9755
283	56.076
321	25.0615
362	60.2465
398	29.5561
436	55.3187
473	27.2307
23	41.676
61	19.8706
98	31.0386
135	50.903
172	28.7959
213	61.2864
250	29.5265
287	60.2601
325	23.5243
366	61.9852
402	33.2
440	48.0512
477	26.5182
27	37.115
65	30.5794
102	29.383
139	64.445
176	28.2383
218	60.059
255	28.5286
292	65.7779
329	22.4732
370	59.9417
406	33.8049
444	48.3401
481	20.6939
31	31.6782
69	35.6345
106	22.2238
143	63.2735
180	29.2007
222	63.7944
259	25.2192
296	58.8005
334	32.2968
374	54.9335
410	38.5693
448	42.4173
485	27.8186
35	23.8603
74	39.2888
110	16.0022
147	57.1469
185	31.0422
226	68.9446
263	28.5726
300	51.3598
339	29.3158
378	48.1844
415	38.3693
452	34.4881
489	32.3186
40	17.0365
78	45.9979
114	22.8197
151	53.1372
189	37.9575
230	67.517
267	35.7872
304	48.3459
343	35.1047
382	44.088
419	42.3283
456	30.9449
493	39.2257
44	11.6515
82	43.6466
118	25.3691
155	46.2635
193	43.2242
234	53.8742
271	35.1949
308	38.352
348	42.4325
386	37.3898
423	41.7764
460	20.8425
497	40.6626
49	13.6799
86	46.6209
122	30.9426
159	42.4706
197	49.5325
238	46.2067
275	40.017
313	30.421
352	48.5132
390	32.0781
427	44.9903
464	15.6872
14	60.3044
53	14.9425
90	46.8951
126	41.9679
163	41.9191
201	59.713
242	44.6327
279	49.9253
317	29.9565
357	57.1075
394	29.5878
431	55.2865
469	17.2452
19	52.4854
57	17.674
94	41.7438
131	48.256
167	38.6991
205	57.5723
246	37.991
283	55.7359
321	25.0599
362	58.9578
398	24.531
436	56.7743
473	18.8931
23	38.9667
61	20.7618
98	30.3043
135	50.4634
172	23.0595
213	64.2347
250	35.8575
287	64.2623
325	20.3675
366	61.5772
402	28.5884
440	49.9903
477	28.4355
27	32.8593
65	26.8741
102	25.3124
139	60.2286
176	24.6911
218	56.8975
255	26.7702
292	62.4533
329	20.2094
370	56.8355
406	31.2694
444	44.6466
481	19.4182
31	32.3125
69	34.0767
106	27.3286
143	61.8589
180	33.0663
222	60.67
259	22.7945
296	54.8129
334	32.9511
374	49.6992
410	35.0225
448	39.6505
485	21.3112
35	26.8669
74	43.4656
110	23.0155
147	59.6167
185	35.8121
226	71.2803
263	30.9382
300	52.6286
339	29.8092
378	47.2987
415	37.2446
452	36.211
489	30.1424
40	17.0697
78	47.5541
114	25.6502
151	52.7619
189	39.9675
230	67.2912
267	35.4106
304	46.9231
343	33.7188
382	41.3016
419	40.3078
456	29.5775
493	36.1617
44	14.1961
82	49.9394
118	30.9735
155	47.8001
193	47.11
234	59.132
271	39.4815
308	40.2988
348	42.2683
386	35.8537
423	42.9606
460	22.6275
497	40.9592
49	13.5894
86	46.3355
122	30.6554
159	42.1782
197	49.3115
238	45.8108
275	39.5779
313	29.9966
352	48.1618
390	31.7461
427	44.5756
464	15.2661
14	54.0889
53	12.503
90	39.7849
126	35.3084
163	37.2216
201	52.9744
242	39.9715
279	45.0386
317	25.7009
357	53.5397
394	29.6222
431	50.1854
469	18.3464
19	50.7592
57	16.3116
94	40.8397
131	47.0532
167	36.2674
205	56.7674
246	39.0564
283	56.2205
321	23.1516
362	57.3425
398	22.166
436	56.0537
473	19.3405
23	40.9934
61	22.6794
98	32.6258
135	52.571
172	24.5513
213	66.4275
250	37.2975
287	66.158
325	21.2318
366	62.8101
402	28.409
440	52.0558
477	28.2008
27	38.1972
65	27.4546
102	31.693
139	63.7064
176	34.2278
218	54.7104
255	21.7299
292	60.2982
329	22.979
370	54.9041
406	34.6565
444	44.4485
481	15.358
31	33.1102
69	36.3616
106	26.3576
143	63.8314
180	32.137
222	63.9196
259	25.5298
296	58.1474
334	32.2395
374	52.8542
410	36.4915
448	42.3753
485	24.4616
35	27.4931
74	41.7919
110	23.1557
147	59.0298
185	37.0088
226	67.1613
263	27.7473
300	49.6062
339	31.3677
378	45.3861
415	36.7149
452	33.8109
489	27.9863
40	18.8169
78	47.6452
114	25.7405
151	54.0346
189	41.1697
230	66.1108
267	34.7102
304	46.9482
343	35.6968
382	42.2723
419	41.554
456	29.5346
493	36.6063
44	13.7318
82	50.6003
118	31.2857
155	47.3827
193	46.7095
234	60.8133
271	40.8376
308	40.9818
348	41.7271
386	35.7994
423	43.0309
460	23.6344
497	41.6728
49	11.9247
86	52.4207
122	36.5235
159	45.4131
197	53.9171
238	52.8325
275	46.1191
313	34.678
352	51.0991
390	32.9158
427	49.4931
464	19.4227
14	60.4154
53	15.6194
90	47.2819
126	42.8335
163	41.4816
201	59.8382
242	47.8106
279	52.88
317	31.3038
357	58.1419
394	30.5968
431	57.1209
469	20.9973
19	46.088
57	15.822
94	36.0467
131	44.3044
167	30.9834
205	53.9474
246	42.2886
283	58.5211
321	22.7774
362	58.1078
398	24.9465
436	55.8422
473	27.1141
23	45.1156
61	22.7632
98	36.4424
135	54.4497
172	30.6436
213	66.0062
250	32.6756
287	63.6797
325	22.259
366	61.7123
402	29.3714
440	51.6712
477	22.0731
27	32.1035
65	20.6239
102	24.0071
139	56.8131
176	30.5909
218	47.369
255	15.2227
292	54.1348
329	25.1692
370	52.144
406	35.923
444	37.8021
481	18.971
31	26.5993
69	25.6926
106	22.2155
143	54.8941
180	29.4646
222	52.0264
259	13.6073
296	47.0534
334	33.7943
374	45.1761
410	34.5586
448	31.8373
485	20.2899
35	23.6685
74	36.8124
110	17.5259
147	55.2886
185	32.4981
226	63.6931
263	23.6496
300	46.4146
339	29.4808
378	43.7794
415	35.4475
452	30.1823
489	27.3759
40	16.2346
78	42.6867
114	20.3235
151	50.8468
189	36.79
230	62.7769
267	31.2339
304	44.2975
343	34.0746
382	41.2401
419	39.8052
456	26.8809
493	35.8714
44	13.1727
82	50.9763
118	31.418
155	48.1437
193	46.652
234	62.1269
271	42.2344
308	42.5267
348	42.7656
386	37.4618
423	44.3236
460	25.2434
497	43.4984
49	10.1333
86	53.1465
122	37.1911
159	44.5894
197	53.9339
238	54.7134
275	47.4325
313	34.7299
352	50.1243
390	31.697
427	49.464
464	20.1604
14	58.5619
53	13.4557
90	47.34
126	42.4489
163	38.1266
201	58.7991
242	50.6415
279	54.5907
317	29.5627
357	55.0111
394	26.7704
431	56.15
469	23.4262
19	49.8667
57	18.1864
94	39.9036
131	47.7264
167	34.3983
205	57.4416
246	43.4396
283	60.2671
321	24.9619
362	60.0355
398	24.4753
436	58.546
473	25.7617
23	44.8308
61	22.6005
98	37.1108
135	54.1744
172	30.074
213	66.4678
250	33.3844
287	63.826
325	20.5386
366	60.1534
402	26.9086
440	51.6155
477	20.1398
27	32.8811
65	21.937
102	24.6331
139	57.9686
176	30.4263
218	48.9439
255	16.6585
292	55.6619
329	24.9711
370	53.3038
406	35.9248
444	39.2332
481	19.0336
31	27.6826
69	27.6302
106	21.0235
143	56.8797
180	29.1117
222	53.896
259	15.7016
296	49.6893
334	34.4175
374	48.2861
410	36.7853
448	34.2381
485	23.3516
35	23.0148
74	34.1094
110	16.4271
147	53.5045
185	31.814
226	60.2278
263	20.4008
300	43.5132
339	29.8367
378	42.0801
415	34.7273
452	27.5454
489	26.1708
40	18.8765
78	44.3264
114	24.8007
151	50.949
189	40.8005
230	59.8219
267	28.799
304	40.9772
343	34.0925
382	37.306
419	37.4754
456	23.7551
493	30.7386
44	10.6633
82	49.6451
118	29.7109
155	47.0816
193	44.3485
234	63.0203
271	43.0226
308	43.2165
348	42.2958
386	38.4497
423	44.3262
460	26.3771
497	44.9257
49	12.5188
86	48.1104
122	32.5185
159	41.4355
197	48.034
238	55.0676
275	47.9551
313	34.7936
352	49.1669
390	34.3072
427	48.4796
464	23.3867
14	58.7761
53	14.6531
90	45.0055
126	40.5141
163	40.7183
201	57.9364
242	44.4243
279	49.7116
317	29.5752
357	56.9553
394	30.4748
431	54.825
469	18.9032
19	51.6008
57	18.6113
94	39.7495
131	48.1602
167	38.0238
205	57.031
246	39.6786
283	57.5073
321	26.8535
362	61.7299
398	28.2697
436	58.035
473	24.2583
23	38.82
61	15.5933
98	28.7311
135	47.0139
172	27.5301
213	57.2628
250	25.5622
287	55.7681
325	20.6648
366	57.5346
402	31.5041
440	43.6359
477	23.8379
27	32.5407
65	21.9896
102	23.6547
139	57.6543
176	29.844
218	48.8358
255	16.8593
292	55.8509
329	25.9484
370	54.0989
406	36.7595
444	39.2878
481	20.5996
31	31.038
69	36.2474
106	22.3518
143	62.9743
180	28.0727
222	65.6849
259	26.6585
296	59.5874
334	29.6072
374	54.381
410	36.5342
448	42.8487
485	26.9523
35	23.4138
74	40.8988
110	17.9843
147	57.174
185	30.6787
226	71.9099
263	30.9006
300	52.9348
339	27.4524
378	48.2963
415	37.5084
452	35.8274
489	32.416
40	20.4428
78	47.3068
114	27.2837
151	53.3917
189	43.0108
230	62.5746
267	31.7893
304	43.6991
343	35.7029
382	39.2778
419	39.6006
456	26.5702
493	32.7288
44	12.6371
82	50.5193
118	30.9754
155	49.5285
193	46.6478
234	62.2738
271	42.8728
308	44.0807
348	44.7721
386	40.0145
423	46.0777
460	26.65
497	45.538
49	10.4404
86	52.0201
122	36.1782
159	43.4488
197	52.0329
238	56.3711
275	48.9506
313	35.4595
352	49.8826
390	32.7777
427	49.7547
464	22.3976
14	58.9602
53	11.8792
90	47.401
126	41.6912
163	39.153
201	59.2462
242	46.4728
279	50.6602
317	27.5725
357	53.5754
394	24.5698
431	53.7482
469	17.7168
19	48.4744
57	15.2304
94	36.2403
131	44.383
167	36.0888
205	53.0377
246	35.6453
283	53.2922
321	24.0766
362	58.7044
398	28.056
436	53.9463
473	22.6649
23	41.9169
61	21.9396
98	31.174
135	52.2427
172	27.8747
213	63.4331
250	33.0315
287	63.2049
325	24.7002
366	64.338
402	33.7974
440	50.3126
477	29.4408
27	37.2754
65	25.8563
102	30.9
139	62.357
176	34.3613
218	52.7133
255	19.7405
292	58.362
329	23.1096
370	53.4059
406	34.6474
444	42.6917
481	14.8005
31	31.0656
69	33.2407
106	26.5786
143	60.6891
180	31.9051
222	60.5716
259	22.4085
296	54.1564
334	31.4564
374	48.5903
410	33.5061
448	38.7678
485	20.1522
35	22.513
74	35.4746
110	17.1483
147	53.8329
185	31.5937
226	62.5797
263	22.2626
300	44.8851
339	28.4692
378	42.2333
415	34.0471
452	28.6242
489	25.9425
40	18.8122
78	45.9789
114	25.4729
151	52.3164
189	41.2222
230	62.5277
267	31.3588
304	43.4546
343	34.6765
382	39.179
419	39.0646
456	26.1544
493	32.9534
44	14.4939
82	50.0557
118	31.1334
155	47.5424
193	47.1838
234	59.0355
271	39.2984
308	39.9245
348	41.8679
386	35.2726
423	42.5782
460	22.2895
497	40.4528
49	10.3576
86	51.844
122	36.0131
159	43.2143
197	51.7807
238	56.4496
275	48.9888
313	35.3914
352	49.7068
390	32.718
427	49.6424
464	22.4955
14	54.9458
53	14.018
90	42.4652
126	38.7948
163	35.8121
201	54.3708
242	49.232
279	53.3695
317	29.0878
357	55.2481
394	30.2776
431	54.9798
469	26.1444
19	48.3036
57	13.7031
94	36.8525
131	43.667
167	35.8823
205	52.6316
246	34.0029
283	51.5404
321	22.1576
362	56.2987
398	25.5833
436	52.3844
473	19.1609
23	44.0233
61	23.0548
98	35.4355
135	54.2781
172	28.635
213	66.7438
250	34.8221
287	65.1751
325	21.9621
366	62.5584
402	28.8978
440	52.3632
477	24.4347
27	35.2798
65	29.1768
102	26.9939
139	62.6446
176	26.3461
218	58.6979
255	27.7335
292	64.6543
329	22.7763
370	59.5249
406	33.8691
444	46.9815
481	21.5704
31	32.0254
69	36.839
106	24.8705
143	63.4701
180	29.9297
222	65.9358
259	27.0005
296	59.414
334	29.6162
374	53.3656
410	35.407
448	43.0127
485	25.169
35	25.6967
74	43.1993
110	21.4602
147	59.1013
185	33.8872
226	72.7162
263	31.9026
300	53.7003
339	28.7058
378	48.3301
415	37.651
452	36.8842
489	31.6783
40	17.5928
78	48.3897
114	25.8095
151	53.8704
189	39.9615
230	69.1303
267	37.2164
304	48.937
343	34.7081
382	43.3579
419	42.0153
456	31.5689
493	38.4793
44	15.1937
82	45.397
118	27.8573
155	46.2188
193	45.6844
234	52.2579
271	33.2977
308	35.9444
348	41.3257
386	34.1936
423	40.1693
460	17.8856
497	37.0229
49	12.9334
86	52.1576
122	36.3758
159	45.3484
197	52.8856
238	55.2733
275	48.5608
313	36.4723
352	51.9756
390	34.9413
427	50.891
464	22.5224
14	58.8995
53	15.2614
90	45.1281
126	40.9274
163	40.7144
201	58
242	45.7615
279	51.013
317	30.3825
357	57.6659
394	31.2891
431	55.7612
469	20.6125
19	47.5515
57	16.3871
94	36.826
131	45.2859
167	32.9757
205	54.6692
246	41.4423
283	58.1711
321	23.9153
362	59.2466
398	26.0272
436	56.4165
473	26.3709
23	41.3347
61	21.3458
98	30.6111
135	51.6282
172	27.4135
213	62.8718
250	32.6504
287	62.6785
325	24.2596
366	63.8088
402	33.5356
440	49.7192
477	29.2706
27	34.2479
65	27.3613
102	24.8316
139	61.1157
176	26.5778
218	55.9763
255	24.95
292	62.6145
329	25.0688
370	59.1869
406	36.003
444	45.0992
481	22.964
31	30.1165
69	30.0593
106	24.1303
143	59.1381
180	31.5964
222	55.5645
259	17.7962
296	51.2208
334	35.0612
374	48.8891
410	36.9042
448	36.2005
485	22.6095
35	24.6911
74	39.1964
110	16.3158
147	57.6144
185	32.0992
226	67.7725
263	27.77
300	50.8078
339	30.4277
378	48.0928
415	38.7521
452	34.1481
489	32.0521
40	19.2476
78	44.2416
114	23.0735
151	52.6258
189	40.1127
230	61.2299
267	30.372
304	43.6992
343	36.1465
382	41.0331
419	40.4995
456	26.3386
493	34.7745
44	15.3827
82	47.7585
118	29.6745
155	46.055
193	46.5162
234	54.943
271	35.3653
308	36.5424
348	40.404
386	32.9149
423	40.0871
460	18.6262
497	36.9729
49	12.4869
86	48.0861
122	32.394
159	42.1516
197	48.7828
238	53.1742
275	46.3659
313	34.1034
352	49.5048
390	34.062
427	48.0978
464	21.6782
14	56.2491
53	12.6009
90	42.4047
126	37.5845
163	38.7304
201	55.4125
242	41.2079
279	46.3257
317	26.6899
357	54.3311
394	28.8633
431	51.5829
469	16.9501
19	47.1568
57	16.7779
94	35.0275
131	44.5598
167	33.9428
205	53.2786
246	39.8341
283	56.8368
321	25.2086
362	60.4688
398	29.4177
436	55.7933
473	27.7599
23	40.7963
61	16.8974
98	30.4391
135	48.2738
172	30.0798
213	57.4207
250	24.1528
287	55.3584
325	22.4061
366	58.2132
402	33.0329
440	44.1051
477	23.251
27	36.197
65	25.1028
102	27.8365
139	61.3281
176	32.8785
218	51.4209
255	18.0111
292	58.2477
329	26.4112
370	55.6835
406	37.729
444	42.2313
481	19.721
31	32.5964
69	32.913
106	25.5664
143	61.9968
180	33.238
222	57.8179
259	20.5226
296	54.0103
334	36.4244
374	51.6298
410	38.9942
448	39.111
485	24.8227
35	26.1401
74	38.8739
110	18.9261
147	57.7609
185	34.735
226	64.5998
263	25.3115
300	48.2945
339	31.8366
378	45.9512
415	37.7812
452	32.3179
489	29.3289
40	20.4643
78	47.4098
114	25.5989
151	55.0638
189	42.0525
230	64.7358
267	33.89
304	46.8712
343	37.5408
382	43.2571
419	42.7242
456	29.4767
493	37.1526
44	12.6501
82	50.1689
118	30.7208
155	48.8969
193	46.5249
234	61.401
271	41.9113
308	43.0161
348	43.9719
386	38.8787
423	45.1435
460	25.5296
497	44.3261
49	11.0079
86	48.1309
122	32.4435
159	40.6546
197	47.9625
238	54.9003
275	47.5038
313	33.8968
352	48.0978
390	32.9088
427	47.6701
464	22.5236
14	59.7868
53	15.0922
90	46.9666
126	42.5345
163	40.5808
201	59.3221
242	48.4892
279	53.3278
317	30.9413
357	57.5688
394	30.0544
431	56.9482
469	21.836
19	52.1338
57	17.5467
94	41.3628
131	48.0982
167	38.2326
205	57.426
246	38.4137
283	56.1041
321	25.0034
362	59.1292
398	24.6412
436	56.8886
473	19.689
23	42.0849
61	19.6856
98	31.6791
135	50.9895
172	29.376
213	61.2145
250	28.814
287	59.803
325	23.1963
366	61.3795
402	32.7862
440	47.8515
477	25.2657
27	36.7802
65	25.7201
102	28.6758
139	62.0129
176	33.2447
218	52.1744
255	18.6791
292	58.8275
329	26.0039
370	55.8154
406	37.4252
444	42.8544
481	19.1289
31	33.6143
69	36.1086
106	26.1845
143	64.1804
180	32.7715
222	62.7737
259	24.7205
296	57.8392
334	34.0628
374	53.5629
410	38.1736
448	42.2876
485	25.5328
35	26.8677
74	40.8455
110	19.5245
147	59.2538
185	35.1383
226	67.409
263	27.921
300	50.8312
339	32.0136
378	47.8752
415	39.0007
452	34.6015
489	31.1493
500	46.5832