File: doc/example/reference_NO_2011/peptso-xrd-47-330-rawDistances.dat
3.055e+01
3.022e+01
2.503e+01
3.293e+01
3.551e+01
3.488e+01
3.782e+01
3.842e+01
3.347e+01
3.725e+01
2.999e+01
3.190e+01
3.138e+01
3.436e+01
3.653e+01
3.053e+01
3.026e+01
2.499e+01
3.291e+01
3.551e+01
3.482e+01
3.769e+01
3.827e+01
3.344e+01
3.722e+01
3.004e+01
3.179e+01
3.132e+01
3.434e+01
3.634e+01
3.032e+01
3.001e+01
2.482e+01
3.271e+01
3.532e+01
3.464e+01
3.759e+01
3.815e+01
3.330e+01
3.703e+01
2.981e+01
3.169e+01
3.119e+01
3.418e+01
3.627e+01
3.061e+01
3.037e+01
2.475e+01
3.292e+01
3.539e+01
3.480e+01
3.740e+01
3.817e+01
3.314e+01
3.714e+01
2.998e+01
3.142e+01
3.099e+01
3.408e+01
3.602e+01
2.522e+01
2.488e+01
1.883e+01
2.737e+01
2.952e+01
2.934e+01
3.167e+01
3.288e+01
2.711e+01
3.139e+01
2.409e+01
2.552e+01
2.497e+01
2.804e+01
3.044e+01
2.711e+01
2.685e+01
2.062e+01
2.924e+01
3.137e+01
3.115e+01
3.328e+01
3.453e+01
2.882e+01
3.323e+01
2.603e+01
2.712e+01
2.665e+01
2.980e+01
3.197e+01
2.373e+01
2.328e+01
1.826e+01
2.607e+01
2.859e+01
2.811e+01
3.122e+01
3.191e+01
2.672e+01
3.035e+01
2.299e+01
2.534e+01
2.470e+01
2.754e+01
3.010e+01
2.497e+01
2.444e+01
1.929e+01
2.726e+01
2.964e+01
2.934e+01
3.232e+01
3.320e+01
2.766e+01
3.146e+01
2.400e+01
2.634e+01
2.564e+01
2.847e+01
3.125e+01
2.525e+01
2.469e+01
1.986e+01
2.759e+01
3.007e+01
2.970e+01
3.289e+01
3.361e+01
2.824e+01
3.186e+01
2.440e+01
2.699e+01
2.626e+01
2.902e+01
3.185e+01
2.567e+01
2.513e+01
2.066e+01
2.810e+01
3.075e+01
3.018e+01
3.362e+01
3.408e+01
2.911e+01
3.246e+01
2.508e+01
2.785e+01
2.714e+01
2.986e+01
3.256e+01
2.691e+01
2.639e+01
2.201e+01
2.937e+01
3.209e+01
3.143e+01
3.494e+01
3.530e+01
3.048e+01
3.378e+01
2.643e+01
2.919e+01
2.851e+01
3.123e+01
3.384e+01
2.642e+01
2.585e+01
2.129e+01
2.882e+01
3.142e+01
3.091e+01
3.429e+01
3.483e+01
2.971e+01
3.316e+01
2.574e+01
2.845e+01
2.774e+01
3.047e+01
3.323e+01
2.205e+01
2.167e+01
1.771e+01
2.458e+01
2.755e+01
2.655e+01
3.034e+01
3.033e+01
2.626e+01
2.910e+01
2.200e+01
2.489e+01
2.432e+01
2.698e+01
2.918e+01
2.244e+01
2.206e+01
1.803e+01
2.496e+01
2.792e+01
2.694e+01
3.068e+01
3.070e+01
2.659e+01
2.947e+01
2.237e+01
2.521e+01
2.464e+01
2.732e+01
2.952e+01
2.205e+01
2.178e+01
1.833e+01
2.467e+01
2.790e+01
2.654e+01
3.060e+01
3.017e+01
2.688e+01
2.931e+01
2.249e+01
2.543e+01
2.497e+01
2.757e+01
2.936e+01
2.859e+01
2.843e+01
2.464e+01
3.122e+01
3.448e+01
3.300e+01
3.688e+01
3.637e+01
3.325e+01
3.587e+01
2.911e+01
3.162e+01
3.125e+01
3.402e+01
3.547e+01
2.826e+01
2.802e+01
2.433e+01
3.089e+01
3.412e+01
3.273e+01
3.668e+01
3.622e+01
3.292e+01
3.554e+01
2.869e+01
3.138e+01
3.095e+01
3.367e+01
3.534e+01
2.673e+01
2.635e+01
2.263e+01
2.933e+01
3.243e+01
3.127e+01
3.521e+01
3.497e+01
3.120e+01
3.392e+01
2.688e+01
2.981e+01
2.926e+01
3.192e+01
3.400e+01
2.380e+01
2.332e+01
1.948e+01
2.633e+01
2.927e+01
2.835e+01
3.220e+01
3.222e+01
2.799e+01
3.084e+01
2.366e+01
2.672e+01
2.607e+01
2.869e+01
3.110e+01
3.134e+01
3.126e+01
2.554e+01
3.365e+01
3.619e+01
3.542e+01
3.790e+01
3.855e+01
3.389e+01
3.786e+01
3.091e+01
3.202e+01
3.171e+01
3.488e+01
3.639e+01
3.177e+01
3.178e+01
2.664e+01
3.420e+01
3.706e+01
3.589e+01
3.878e+01
3.891e+01
3.510e+01
3.859e+01
3.184e+01
3.317e+01
3.294e+01
3.604e+01
3.718e+01
3.208e+01
3.208e+01
2.630e+01
3.438e+01
3.692e+01
3.608e+01
3.845e+01
3.906e+01
3.460e+01
3.858e+01
3.175e+01
3.263e+01
3.240e+01
3.561e+01
3.686e+01
3.190e+01
3.208e+01
2.629e+01
3.417e+01
3.679e+01
3.572e+01
3.796e+01
3.840e+01
3.448e+01
3.834e+01
3.183e+01
3.232e+01
3.226e+01
3.551e+01
3.622e+01
3.123e+01
3.157e+01
2.613e+01
3.353e+01
3.635e+01
3.493e+01
3.731e+01
3.735e+01
3.426e+01
3.774e+01
3.159e+01
3.199e+01
3.206e+01
3.528e+01
3.545e+01
3.157e+01
3.179e+01
2.622e+01
3.388e+01
3.661e+01
3.538e+01
3.776e+01
3.800e+01
3.443e+01
3.809e+01
3.169e+01
3.225e+01
3.222e+01
3.545e+01
3.599e+01
3.148e+01
3.166e+01
2.633e+01
3.385e+01
3.669e+01
3.539e+01
3.801e+01
3.811e+01
3.464e+01
3.815e+01
3.169e+01
3.253e+01
3.246e+01
3.563e+01
3.627e+01
3.119e+01
3.143e+01
2.636e+01
3.360e+01
3.656e+01
3.509e+01
3.786e+01
3.774e+01
3.467e+01
3.796e+01
3.163e+01
3.253e+01
3.251e+01
3.564e+01
3.610e+01
2.991e+01
3.020e+01
2.521e+01
3.231e+01
3.531e+01
3.376e+01
3.655e+01
3.633e+01
3.349e+01
3.667e+01
3.046e+01
3.131e+01
3.133e+01
3.445e+01
3.475e+01
2.896e+01
2.905e+01
2.241e+01
3.100e+01
3.310e+01
3.262e+01
3.418e+01
3.540e+01
3.032e+01
3.485e+01
2.819e+01
2.821e+01
2.807e+01
3.141e+01
3.257e+01
3.088e+01
3.092e+01
2.448e+01
3.300e+01
3.520e+01
3.467e+01
3.643e+01
3.753e+01
3.250e+01
3.694e+01
3.017e+01
3.045e+01
3.026e+01
3.357e+01
3.483e+01
3.191e+01
3.200e+01
2.576e+01
3.408e+01
3.642e+01
3.570e+01
3.759e+01
3.848e+01
3.382e+01
3.810e+01
3.142e+01
3.173e+01
3.159e+01
3.489e+01
3.594e+01
3.213e+01
3.230e+01
2.621e+01
3.432e+01
3.677e+01
3.588e+01
3.785e+01
3.854e+01
3.428e+01
3.838e+01
3.185e+01
3.211e+01
3.204e+01
3.535e+01
3.612e+01
2.589e+01
2.552e+01
1.925e+01
2.797e+01
2.996e+01
2.995e+01
3.207e+01
3.351e+01
2.738e+01
3.189e+01
2.454e+01
2.583e+01
2.525e+01
2.834e+01
3.088e+01
2.593e+01
2.568e+01
1.921e+01
2.799e+01
2.998e+01
2.988e+01
3.182e+01
3.325e+01
2.732e+01
3.188e+01
2.469e+01
2.561e+01
2.514e+01
2.832e+01
3.052e+01
2.513e+01
2.476e+01
1.896e+01
2.733e+01
2.957e+01
2.933e+01
3.186e+01
3.295e+01
2.728e+01
3.142e+01
2.408e+01
2.576e+01
2.518e+01
2.819e+01
3.066e+01
2.411e+01
2.375e+01
1.789e+01
2.629e+01
2.852e+01
2.828e+01
3.077e+01
3.189e+01
2.621e+01
3.037e+01
2.304e+01
2.469e+01
2.411e+01
2.713e+01
2.958e+01
2.830e+01
2.794e+01
2.334e+01
3.078e+01
3.357e+01
3.274e+01
3.612e+01
3.639e+01
3.187e+01
3.522e+01
2.801e+01
3.039e+01
2.984e+01
3.269e+01
3.488e+01
3.025e+01
2.996e+01
2.502e+01
3.269e+01
3.542e+01
3.460e+01
3.774e+01
3.811e+01
3.353e+01
3.708e+01
2.992e+01
3.193e+01
3.145e+01
3.440e+01
3.640e+01
2.959e+01
2.926e+01
2.458e+01
3.207e+01
3.487e+01
3.400e+01
3.733e+01
3.758e+01
3.312e+01
3.650e+01
2.933e+01
3.159e+01
3.107e+01
3.395e+01
3.604e+01
2.947e+01
2.907e+01
2.402e+01
3.186e+01
3.444e+01
3.385e+01
3.691e+01
3.751e+01
3.248e+01
3.618e+01
2.886e+01
3.099e+01
3.041e+01
3.333e+01
3.568e+01
3.097e+01
3.075e+01
2.445e+01
3.311e+01
3.522e+01
3.498e+01
3.698e+01
3.827e+01
3.255e+01
3.708e+01
2.991e+01
3.079e+01
3.036e+01
3.356e+01
3.561e+01
3.059e+01
3.029e+01
2.430e+01
3.280e+01
3.501e+01
3.473e+01
3.702e+01
3.817e+01
3.252e+01
3.687e+01
2.959e+01
3.087e+01
3.037e+01
3.349e+01
3.571e+01
2.917e+01
2.891e+01
2.253e+01
3.127e+01
3.330e+01
3.317e+01
3.513e+01
3.653e+01
3.061e+01
3.519e+01
2.798e+01
2.890e+01
2.843e+01
3.162e+01
3.381e+01
2.893e+01
2.859e+01
2.237e+01
3.105e+01
3.309e+01
3.302e+01
3.512e+01
3.651e+01
3.048e+01
3.500e+01
2.768e+01
2.888e+01
2.833e+01
3.145e+01
3.388e+01
3.044e+01
3.033e+01
2.461e+01
3.274e+01
3.525e+01
3.453e+01
3.702e+01
3.771e+01
3.296e+01
3.695e+01
2.996e+01
3.111e+01
3.078e+01
3.394e+01
3.553e+01
2.481e+01
2.459e+01
1.772e+01
2.673e+01
2.850e+01
2.860e+01
3.018e+01
3.191e+01
2.561e+01
3.045e+01
2.332e+01
2.388e+01
2.342e+01
2.665e+01
2.890e+01
2.815e+01
2.795e+01
2.113e+01
3.011e+01
3.191e+01
3.196e+01
3.349e+01
3.519e+01
2.897e+01
3.386e+01
2.674e+01
2.720e+01
2.678e+01
3.003e+01
3.215e+01
2.911e+01
2.896e+01
2.206e+01
3.105e+01
3.284e+01
3.285e+01
3.426e+01
3.596e+01
2.985e+01
3.477e+01
2.775e+01
2.799e+01
2.763e+01
3.092e+01
3.286e+01
3.133e+01
3.162e+01
2.597e+01
3.360e+01
3.631e+01
3.506e+01
3.730e+01
3.755e+01
3.409e+01
3.777e+01
3.149e+01
3.185e+01
3.188e+01
3.513e+01
3.549e+01
3.203e+01
3.202e+01
2.598e+01
3.426e+01
3.666e+01
3.597e+01
3.812e+01
3.894e+01
3.418e+01
3.837e+01
3.151e+01
3.220e+01
3.197e+01
3.521e+01
3.654e+01
3.141e+01
3.129e+01
2.545e+01
3.368e+01
3.612e+01
3.547e+01
3.785e+01
3.864e+01
3.374e+01
3.785e+01
3.084e+01
3.189e+01
3.156e+01
3.474e+01
3.636e+01
2.803e+01
2.777e+01
2.097e+01
2.999e+01
3.174e+01
3.188e+01
3.345e+01
3.521e+01
2.881e+01
3.372e+01
2.652e+01
2.711e+01
2.663e+01
2.985e+01
3.217e+01
2.760e+01
2.736e+01
2.057e+01
2.956e+01
3.135e+01
3.144e+01
3.302e+01
3.474e+01
2.844e+01
3.330e+01
2.614e+01
2.671e+01
2.625e+01
2.948e+01
3.173e+01
2.737e+01
2.704e+01
2.042e+01
2.935e+01
3.116e+01
3.130e+01
3.304e+01
3.474e+01
2.833e+01
3.314e+01
2.586e+01
2.671e+01
2.617e+01
2.934e+01
3.182e+01
2.159e+01
2.105e+01
1.621e+01
2.390e+01
2.639e+01
2.600e+01
2.920e+01
2.993e+01
2.462e+01
2.817e+01
2.075e+01
2.337e+01
2.266e+01
2.540e+01
2.818e+01
2.245e+01
2.189e+01
1.636e+01
2.461e+01
2.677e+01
2.673e+01
2.944e+01
3.062e+01
2.462e+01
2.867e+01
2.115e+01
2.335e+01
2.260e+01
2.545e+01
2.844e+01
2.096e+01
2.041e+01
1.471e+01
2.306e+01
2.514e+01
2.517e+01
2.778e+01
2.907e+01
2.295e+01
2.706e+01
1.956e+01
2.168e+01
2.093e+01
2.379e+01
2.680e+01
1.941e+01
1.908e+01
1.259e+01
2.138e+01
2.330e+01
2.336e+01
2.545e+01
2.696e+01
2.081e+01
2.522e+01
1.795e+01
1.928e+01
1.869e+01
2.175e+01
2.433e+01
2.068e+01
2.035e+01
1.370e+01
2.261e+01
2.444e+01
2.458e+01
2.650e+01
2.813e+01
2.181e+01
2.639e+01
1.912e+01
2.025e+01
1.967e+01
2.277e+01
2.536e+01
2.264e+01
2.203e+01
1.741e+01
2.498e+01
2.748e+01
2.710e+01
3.043e+01
3.111e+01
2.579e+01
2.925e+01
2.179e+01
2.461e+01
2.385e+01
2.653e+01
2.945e+01
2.339e+01
2.279e+01
1.774e+01
2.565e+01
2.799e+01
2.778e+01
3.082e+01
3.174e+01
2.607e+01
2.983e+01
2.232e+01
2.485e+01
2.409e+01
2.685e+01
2.983e+01
2.107e+01
2.053e+01
1.578e+01
2.340e+01
2.592e+01
2.550e+01
2.877e+01
2.944e+01
2.423e+01
2.767e+01
2.027e+01
2.298e+01
2.227e+01
2.498e+01
2.776e+01
2.168e+01
2.115e+01
1.599e+01
2.394e+01
2.630e+01
2.603e+01
2.903e+01
2.993e+01
2.438e+01
2.812e+01
2.067e+01
2.310e+01
2.239e+01
2.518e+01
2.801e+01
2.387e+01
2.345e+01
2.012e+01
2.648e+01
2.965e+01
2.844e+01
3.259e+01
3.224e+01
2.863e+01
3.111e+01
2.412e+01
2.733e+01
2.675e+01
2.929e+01
3.145e+01
2.520e+01
2.474e+01
2.101e+01
2.776e+01
3.077e+01
2.977e+01
3.368e+01
3.360e+01
2.953e+01
3.232e+01
2.518e+01
2.823e+01
2.761e+01
3.023e+01
3.256e+01
2.432e+01
2.379e+01
2.002e+01
2.684e+01
2.977e+01
2.889e+01
3.278e+01
3.282e+01
2.850e+01
3.135e+01
2.412e+01
2.728e+01
2.660e+01
2.918e+01
3.172e+01
2.467e+01
2.416e+01
2.049e+01
2.722e+01
3.020e+01
2.926e+01
3.320e+01
3.316e+01
2.897e+01
3.176e+01
2.457e+01
2.774e+01
2.708e+01
2.965e+01
3.212e+01
2.836e+01
2.823e+01
2.383e+01
3.090e+01
3.395e+01
3.268e+01
3.616e+01
3.600e+01
3.241e+01
3.544e+01
2.860e+01
3.070e+01
3.035e+01
3.325e+01
3.472e+01
2.943e+01
2.940e+01
2.405e+01
3.182e+01
3.455e+01
3.354e+01
3.630e+01
3.664e+01
3.251e+01
3.613e+01
2.930e+01
3.060e+01
3.034e+01
3.345e+01
3.476e+01
2.981e+01
2.951e+01
2.383e+01
3.209e+01
3.446e+01
3.402e+01
3.658e+01
3.749e+01
3.218e+01
3.626e+01
2.901e+01
3.053e+01
3.004e+01
3.311e+01
3.527e+01
2.846e+01
2.798e+01
2.247e+01
3.071e+01
3.299e+01
3.276e+01
3.545e+01
3.648e+01
3.077e+01
3.485e+01
2.741e+01
2.934e+01
2.869e+01
3.165e+01
3.430e+01
2.815e+01
2.770e+01
2.217e+01
3.041e+01
3.270e+01
3.244e+01
3.513e+01
3.615e+01
3.047e+01
3.455e+01
2.713e+01
2.903e+01
2.840e+01
3.136e+01
3.397e+01
2.965e+01
2.926e+01
2.393e+01
3.199e+01
3.444e+01
3.398e+01
3.682e+01
3.761e+01
3.232e+01
3.623e+01
2.889e+01
3.081e+01
3.024e+01
3.320e+01
3.559e+01
2.765e+01
2.724e+01
2.316e+01
3.019e+01
3.314e+01
3.216e+01
3.589e+01
3.589e+01
3.171e+01
3.471e+01
2.756e+01
3.032e+01
2.974e+01
3.246e+01
3.468e+01
2.606e+01
2.555e+01
2.149e+01
2.856e+01
3.142e+01
3.061e+01
3.433e+01
3.448e+01
2.999e+01
3.304e+01
2.577e+01
2.872e+01
2.805e+01
3.071e+01
3.323e+01
2.753e+01
2.719e+01
2.320e+01
3.010e+01
3.314e+01
3.203e+01
3.580e+01
3.567e+01
3.178e+01
3.467e+01
2.761e+01
3.032e+01
2.979e+01
3.253e+01
3.455e+01
2.824e+01
2.794e+01
2.382e+01
3.081e+01
3.384e+01
3.270e+01
3.640e+01
3.627e+01
3.242e+01
3.536e+01
2.834e+01
3.090e+01
3.041e+01
3.319e+01
3.510e+01
3.037e+01
3.004e+01
2.481e+01
3.275e+01
3.531e+01
3.470e+01
3.761e+01
3.824e+01
3.325e+01
3.705e+01
2.979e+01
3.167e+01
3.115e+01
3.414e+01
3.632e+01
2.841e+01
2.797e+01
2.241e+01
3.066e+01
3.296e+01
3.269e+01
3.536e+01
3.638e+01
3.072e+01
3.481e+01
2.740e+01
2.925e+01
2.863e+01
3.160e+01
3.418e+01
2.841e+01
2.796e+01
2.257e+01
3.070e+01
3.306e+01
3.274e+01
3.553e+01
3.646e+01
3.091e+01
3.489e+01
2.748e+01
2.948e+01
2.884e+01
3.178e+01
3.437e+01
2.860e+01
2.822e+01
2.324e+01
3.100e+01
3.362e+01
3.299e+01
3.610e+01
3.664e+01
3.171e+01
3.535e+01
2.806e+01
3.022e+01
2.965e+01
3.256e+01
3.486e+01
2.892e+01
2.892e+01
2.413e+01
3.140e+01
3.438e+01
3.310e+01
3.625e+01
3.619e+01
3.265e+01
3.586e+01
2.916e+01
3.077e+01
3.053e+01
3.355e+01
3.469e+01
3.063e+01
3.062e+01
2.521e+01
3.300e+01
3.572e+01
3.471e+01
3.739e+01
3.774e+01
3.363e+01
3.731e+01
3.051e+01
3.168e+01
3.145e+01
3.459e+01
3.581e+01
3.002e+01
3.009e+01
2.459e+01
3.237e+01
3.508e+01
3.401e+01
3.659e+01
3.693e+01
3.295e+01
3.664e+01
2.996e+01
3.093e+01
3.076e+01
3.394e+01
3.496e+01
3.092e+01
3.089e+01
2.551e+01
3.331e+01
3.602e+01
3.503e+01
3.775e+01
3.811e+01
3.394e+01
3.762e+01
3.078e+01
3.203e+01
3.177e+01
3.489e+01
3.620e+01
3.157e+01
3.145e+01
2.577e+01
3.389e+01
3.640e+01
3.569e+01
3.820e+01
3.888e+01
3.412e+01
3.811e+01
3.109e+01
3.229e+01
3.195e+01
3.510e+01
3.672e+01
3.136e+01
3.134e+01
2.562e+01
3.367e+01
3.623e+01
3.539e+01
3.782e+01
3.841e+01
3.395e+01
3.788e+01
3.104e+01
3.200e+01
3.176e+01
3.495e+01
3.626e+01
3.158e+01
3.146e+01
2.542e+01
3.381e+01
3.614e+01
3.561e+01
3.782e+01
3.877e+01
3.365e+01
3.791e+01
3.087e+01
3.179e+01
3.145e+01
3.466e+01
3.634e+01
3.121e+01
3.095e+01
2.533e+01
3.352e+01
3.596e+01
3.543e+01
3.803e+01
3.884e+01
3.368e+01
3.773e+01
3.052e+01
3.201e+01
3.154e+01
3.462e+01
3.667e+01
2.531e+01
2.504e+01
1.811e+01
2.719e+01
2.887e+01
2.909e+01
3.058e+01
3.243e+01
2.592e+01
3.086e+01
2.369e+01
2.424e+01
2.374e+01
2.696e+01
2.934e+01
2.390e+01
2.363e+01
1.679e+01
2.581e+01
2.755e+01
2.773e+01
2.937e+01
3.113e+01
2.470e+01
2.953e+01
2.232e+01
2.305e+01
2.253e+01
2.572e+01
2.815e+01
2.548e+01
2.525e+01
1.820e+01
2.733e+01
2.896e+01
2.921e+01
3.057e+01
3.248e+01
2.594e+01
3.096e+01
2.384e+01
2.421e+01
2.375e+01
2.700e+01
2.931e+01
2.834e+01
2.842e+01
2.138e+01
3.023e+01
3.205e+01
3.185e+01
3.299e+01
3.458e+01
2.902e+01
3.388e+01
2.726e+01
2.691e+01
2.677e+01
3.015e+01
3.141e+01
3.014e+01
3.013e+01
2.331e+01
3.213e+01
3.406e+01
3.384e+01
3.525e+01
3.675e+01
3.112e+01
3.591e+01
2.907e+01
2.912e+01
2.888e+01
3.222e+01
3.373e+01
2.945e+01
2.945e+01
2.262e+01
3.143e+01
3.335e+01
3.313e+01
3.453e+01
3.602e+01
3.042e+01
3.520e+01
2.839e+01
2.841e+01
2.818e+01
3.152e+01
3.300e+01